time,ax,ay,az,gx,gy,gz,mx,my,mz
1734660158.3387165,-0.18310547,-8.422852,1013.30566,2.5939941,2.5253296,13.175964,-299.30392,-241.95227,19.005934
1734660158.3389044,-0.6713867,-14.526367,1013.0005,6.8893433,3.8986206,13.2751465,-299.30392,-241.95227,19.005934
1734660158.3467615,6.164551,-15.869141,1005.98145,9.216309,4.40979,13.565063,-299.30392,-241.95227,19.005934
1734660158.350824,13.183594,-6.591797,991.02783,10.322571,4.470825,14.160156,-299.30392,-241.95227,19.005934
1734660158.3555882,12.145996,-5.6762695,979.126,10.154724,4.1275024,14.785767,-299.30392,-241.95227,19.005934
1734660158.3590672,14.831543,-2.0751953,974.9756,9.529114,3.501892,15.022278,-299.30392,-241.95227,19.005934
1734660158.3671641,15.930176,-2.6245117,958.61816,7.9574585,2.5405884,15.045166,-299.30392,-241.95227,19.005934
1734660158.3712342,19.89746,-2.319336,956.604,5.958557,1.2207031,15.182495,-299.30392,-241.95227,19.005934
1734660158.3753376,11.84082,-0.9765625,964.17236,4.5547485,-0.60272217,15.4800415,-299.30392,-241.95227,19.005934
1734660158.3796005,3.2348633,-4.4555664,970.52,3.074646,-2.998352,15.815735,-299.30392,-241.95227,19.005934
1734660158.3836732,-2.1362305,-1.7700195,976.3794,2.0446777,-5.4244995,16.25061,-299.30392,-241.95227,19.005934
1734660158.3918145,-1.4038086,-0.79345703,982.91016,2.0217896,-7.4691772,16.51764,-299.30392,-241.95227,19.005934
1734660158.3981855,0.91552734,2.5634766,994.2627,2.5558472,-8.81958,16.677856,-299.30392,-241.95227,19.005934
1734660158.3999367,6.591797,3.90625,1002.19727,3.1356812,-9.124756,16.700745,-299.30392,-241.95227,19.005934
1734660158.404094,2.2583008,-6.164551,1002.3804,3.7231445,-8.399963,16.395569,-299.30392,-241.95227,19.005934
1734660158.41223,2.0141602,-5.6152344,995.3613,4.638672,-6.996155,16.052246,-299.30392,-241.95227,19.005934
1734660158.416348,11.047363,-1.5258789,988.64746,5.54657,-5.2490234,15.792847,-299.30392,-241.95227,19.005934
1734660158.4205644,19.226074,14.892578,990.9668,5.6533813,-3.4484863,15.342712,-299.30392,-241.95227,19.005934
1734660158.4246354,24.963379,29.052734,997.6196,4.5394897,-2.029419,14.678955,-299.30392,-241.95227,19.005934
1734660158.4287927,26.062012,33.813477,993.34717,2.0980835,-0.6561279,13.824463,-299.30392,-241.95227,19.005934
1734660158.43703,28.625488,30.88379,985.1074,-1.2054443,0.20599365,12.748718,-299.30392,-241.95227,19.005934
1734660158.4410198,26.97754,23.620605,974.8535,-4.5776367,0.8544922,11.787415,-299.30392,-241.95227,19.005934
1734660158.445051,25.634766,27.09961,969.84863,-7.3928833,1.3580322,10.719299,-299.30392,-241.95227,19.005934
1734660158.449228,33.87451,28.198242,979.3701,-9.3688965,1.9378662,9.399414,-293.92722,-254.49794,24.18937
1734660158.4572551,38.635254,17.39502,984.8633,-11.054993,2.1362305,8.277893,-293.92722,-254.49794,24.18937
1734660158.4614542,46.75293,14.709473,987.42676,-12.35199,1.4953613,7.446289,-293.92722,-254.49794,24.18937
1734660158.4670413,48.88916,8.483887,990.1123,-13.122559,0.32043457,6.477356,-293.92722,-254.49794,24.18937
1734660158.4711976,51.3916,7.507324,997.9248,-13.656616,-0.8392334,5.1651,-293.92722,-254.49794,24.18937
1734660158.4737895,44.128418,7.019043,1009.0332,-14.373779,-1.9454956,3.829956,-293.92722,-254.49794,24.18937
1734660158.4818962,31.860352,2.5024414,1008.3008,-15.846252,-3.7765503,2.7542114,-293.92722,-254.49794,24.18937
1734660158.4859703,30.944824,-17.39502,1003.1128,-16.89148,-6.1035156,1.5869141,-293.92722,-254.49794,24.18937
1734660158.4900336,18.981934,-33.75244,1005.6763,-16.235352,-8.529663,0.90026855,-293.92722,-254.49794,24.18937
1734660158.4942548,-6.0424805,-36.193848,1025.6348,-13.98468,-11.611938,1.3198853,-293.92722,-254.49794,24.18937
1734660158.5023265,-18.737793,-15.319824,1051.2085,-11.71875,-15.037537,2.2125244,-293.92722,-254.49794,24.18937
1734660158.5065634,-31.677246,-37.109375,1054.6265,-11.192322,-18.26477,3.8528442,-293.92722,-254.49794,24.18937
1734660158.51058,-16.906738,-40.649414,1045.8984,-10.887146,-20.980835,4.722595,-293.92722,-254.49794,24.18937
1734660158.514713,-3.7841797,-33.5083,1037.0483,-9.69696,-22.727966,5.7754517,-293.92722,-254.49794,24.18937
1734660158.518796,4.8828125,-32.470703,1026.1841,-8.636475,-24.475098,6.980896,-293.92722,-254.49794,24.18937
1734660158.5269375,6.225586,-3.3569336,1016.41846,-8.407593,-26.397705,7.8582764,-293.92722,-254.49794,24.18937
1734660158.531075,-15.014648,-22.583008,988.2202,-9.765625,-27.999878,8.583069,-293.92722,-254.49794,24.18937
1734660158.5351405,-11.169434,-24.719238,962.09717,-10.635376,-28.22113,8.117676,-293.92722,-254.49794,24.18937
1734660158.539253,-2.4414063,-19.89746,954.4678,-11.161804,-27.21405,7.133484,-293.92722,-254.49794,24.18937
1734660158.547435,17.578125,-24.963379,977.9663,-11.756897,-25.32959,6.011963,-293.92722,-254.49794,24.18937
1734660158.5516577,41.68701,-9.82666,1036.8652,-11.810303,-22.415161,4.890442,-293.92722,-254.49794,24.18937
1734660158.5556064,45.10498,2.9907227,1080.0781,-12.413025,-18.730164,3.8986206,-293.92722,-254.49794,24.18937
1734660158.559762,31.25,4.8217773,1094.1162,-13.900757,-15.213013,3.6239624,-293.92722,-254.49794,24.18937
1734660158.563878,20.141602,-18.676758,1071.106,-15.907288,-12.275696,4.043579,-293.92722,-254.49794,24.18937
1734660158.5719802,27.160645,-38.024902,1044.3726,-16.456604,-9.979248,3.9672852,-293.92722,-254.49794,24.18937
1734660158.576123,45.532227,-34.118652,1030.5786,-15.487671,-7.9345703,3.6621094,-277.79706,-270.6281,43.1953
1734660158.5802515,58.59375,-25.817871,1028.9917,-14.0686035,-5.9890747,3.3569336,-277.79706,-270.6281,43.1953
1734660158.5843747,62.316895,-30.273438,1030.3955,-12.718201,-4.2037964,2.7999878,-277.79706,-270.6281,43.1953
1734660158.5925405,48.706055,-31.066895,1029.2358,-11.360168,-2.4337769,2.128601,-277.79706,-270.6281,43.1953
1734660158.5966148,36.132813,-47.24121,1015.625,-10.139465,-0.6637573,1.7318726,-277.79706,-270.6281,43.1953
1734660158.600651,25.878906,-48.15674,1009.5215,-8.361816,1.2359619,1.9302368,-277.79706,-270.6281,43.1953
1734660158.604765,22.705078,-45.47119,1007.5073,-6.42395,2.5863647,2.5482178,-277.79706,-270.6281,43.1953
1734660158.6089199,25.878906,-46.691895,1000.3662,-4.5394897,2.89917,3.211975,-277.79706,-270.6281,43.1953
1734660158.6170857,26.611328,-41.44287,987.24365,-3.4484863,2.1820068,3.8223267,-277.79706,-270.6281,43.1953
1734660158.6211824,26.428223,-44.86084,961.6699,-2.6931763,1.1062622,4.196167,-277.79706,-270.6281,43.1953
1734660158.6252527,21.606445,-46.63086,942.688,-2.0065308,0.44250488,4.257202,-277.79706,-270.6281,43.1953
1734660158.6294148,28.930664,-59.570313,922.4243,-1.4038086,-0.17547607,4.3411255,-277.79706,-270.6281,43.1953
1734660158.6376297,40.527344,-25.146484,937.8662,-0.541687,-1.1062622,5.142212,-277.79706,-270.6281,43.1953
1734660158.6416245,44.37256,-68.481445,949.646,-0.35858154,-1.9836426,6.2561035,-277.79706,-270.6281,43.1953
1734660158.6458964,45.532227,-27.770996,988.8916,0.90789795,-3.211975,6.500244,-277.79706,-270.6281,43.1953
1734660158.649886,40.893555,-21.42334,1003.35693,0.51116943,-5.279541,6.538391,-277.79706,-270.6281,43.1953
1734660158.6540651,33.63037,-16.052246,1030.1514,-0.22125244,-6.6070557,6.7214966,-277.79706,-270.6281,43.1953
1734660158.6621616,24.841309,-2.9296875,1037.1704,-1.083374,-6.515503,7.217407,-277.79706,-270.6281,43.1953
1734660158.6662488,17.27295,-14.038086,1019.2871,-2.5863647,-5.1879883,7.659912,-277.79706,-270.6281,43.1953
1734660158.670322,20.751953,-24.536133,1002.9907,-3.211975,-3.3340454,7.751465,-277.79706,-270.6281,43.1953
1734660158.6744568,17.822266,-30.761719,989.3799,-2.8076172,-1.0299683,7.675171,-277.79706,-270.6281,43.1953
1734660158.6786344,12.329102,0.79345703,982.4219,-2.1514893,1.2283325,7.4386597,-277.79706,-270.6281,43.1953
1734660158.6868057,3.479004,-42.60254,988.5254,-3.5858154,1.8157959,7.8048706,-277.79706,-270.6281,43.1953
1734660158.6908956,13.061523,-8.483887,1006.2866,-3.0670166,1.9683838,8.712769,-277.79706,-270.6281,43.1953
1734660158.6948411,3.2958984,-27.404785,1001.46484,-4.386902,3.479004,9.063721,-277.79706,-270.6281,43.1953
1734660158.6990316,31.00586,-20.935059,1016.23535,-5.4779053,5.622864,9.101868,-276.00482,-286.75824,38.011868
1734660158.707232,18.920898,-8.911133,1012.08496,-6.8893433,8.850098,9.376526,-276.00482,-286.75824,38.011868
1734660158.711266,-1.953125,-24.230957,975.95215,-8.377075,11.71875,9.552002,-276.00482,-286.75824,38.011868
1734660158.7153594,18.371582,-22.949219,974.24316,-8.392334,13.679504,9.559631,-276.00482,-286.75824,38.011868
1734660158.7195206,20.019531,-31.982422,952.9419,-8.605957,15.342712,9.925842,-276.00482,-286.75824,38.011868
1734660158.7235894,4.1503906,-39.42871,928.40576,-7.6065063,16.479492,10.658264,-276.00482,-286.75824,38.011868
1734660158.7317913,10.314941,-44.555664,925.96436,-4.9819946,16.76941,10.856628,-276.00482,-286.75824,38.011868
1734660158.7357984,10.986328,-49.804688,918.51807,-1.9683838,16.63971,11.329651,-276.00482,-286.75824,38.011868
1734660158.7399049,24.475098,-58.22754,923.52295,2.1743774,15.914917,12.062073,-276.00482,-286.75824,38.011868
1734660158.7442214,4.760742,-65.36865,913.63525,6.752014,14.480591,12.939453,-276.00482,-286.75824,38.011868
1734660158.7522933,-5.9814453,-53.28369,936.70654,11.451721,12.413025,13.786316,-276.00482,-286.75824,38.011868
1734660158.7562778,-20.141602,-47.180176,936.7676,14.9383545,10.116577,14.640808,-276.00482,-286.75824,38.011868
1734660158.7603717,-8.178711,-50.598145,928.1616,17.76886,7.7438354,15.289307,-276.00482,-286.75824,38.011868
1734660158.7647386,-21.728516,-56.82373,908.02,19.309998,5.8288574,16.25824,-276.00482,-286.75824,38.011868
1734660158.7728746,-5.9814453,-60.424805,897.46094,20.339966,4.142761,16.685486,-276.00482,-286.75824,38.011868
1734660158.776732,3.2348633,-51.26953,888.1836,21.018982,3.2577515,16.998291,-276.00482,-286.75824,38.011868
1734660158.781476,10.498047,-39.489746,890.3198,21.224976,2.746582,17.196655,-276.00482,-286.75824,38.011868
1734660158.7907248,11.59668,-33.14209,906.4331,21.125793,2.8762817,17.158508,-276.00482,-286.75824,38.011868
1734660158.7932172,1.2817383,-34.729004,914.4287,20.378113,3.3493042,16.998291,-276.00482,-286.75824,38.011868
1734660158.7972097,7.1411133,-26.794434,921.1426,19.752502,4.081726,16.708374,-276.00482,-286.75824,38.011868
1734660158.8014174,12.390137,-23.132324,934.63135,18.806458,4.814148,16.731262,-276.00482,-286.75824,38.011868
1734660158.8055859,6.3476563,-3.1738281,955.0781,17.364502,5.455017,17.211914,-276.00482,-286.75824,38.011868
1734660158.8096228,-3.2958984,-3.90625,957.21436,14.892578,5.592346,17.63153,-276.00482,-286.75824,38.011868
1734660158.8177562,-11.474609,-23.620605,933.77686,13.183594,5.1345825,17.906189,-276.00482,-286.75824,38.011868
1734660158.8219762,-18.493652,-49.25537,909.60693,13.191223,4.8980713,17.89093,-276.00482,-286.75824,38.011868
1734660158.825872,-16.479492,-68.29834,888.7329,14.9002075,5.065918,17.860413,-288.55048,-295.71945,50.106552
1734660158.8301053,-25.268555,-38.635254,895.2637,17.936707,5.9814453,18.119812,-288.55048,-295.71945,50.106552
1734660158.8382056,-22.888184,-35.461426,911.8042,19.577026,5.9661865,17.715454,-288.55048,-295.71945,50.106552
1734660158.8422868,-13.48877,-44.006348,909.4238,20.965576,5.5999756,17.227173,-288.55048,-295.71945,50.106552
1734660158.8466809,-6.8969727,-31.677246,919.2505,22.636414,4.989624,17.280579,-288.55048,-295.71945,50.106552
1734660158.8505309,-7.385254,-19.714355,926.45264,23.5672,4.2648315,17.486572,-288.55048,-295.71945,50.106552
1734660158.854789,-4.5776367,-16.540527,930.7251,23.658752,3.1661987,17.410278,-288.55048,-295.71945,50.106552
1734660158.8629284,-10.7421875,-17.8833,925.59814,23.384094,1.9683838,17.440796,-288.55048,-295.71945,50.106552
1734660158.867805,-21.850586,-12.329102,923.9502,23.30017,1.1291504,17.288208,-288.55048,-295.71945,50.106552
1734660158.8732803,-27.404785,-10.314941,928.71094,22.865295,0.45776367,16.609192,-288.55048,-295.71945,50.106552
1734660158.8752818,-20.202637,-2.0141602,935.6079,22.224426,-0.022888184,15.4800415,-288.55048,-295.71945,50.106552
1734660158.8833776,-21.362305,-10.925293,943.2373,21.377563,-0.16784668,14.61792,-288.55048,-295.71945,50.106552
1734660158.8901744,-22.033691,-12.451172,953.7964,20.706177,0.09918213,14.030457,-288.55048,-295.71945,50.106552
1734660158.8916466,-37.53662,-0.91552734,943.7866,19.927979,0.75531006,13.748169,-288.55048,-295.71945,50.106552
1734660158.8955545,-38.81836,-1.5258789,956.0547,19.340515,1.0604858,13.114929,-288.55048,-295.71945,50.106552
1734660158.8998005,-31.12793,-10.559082,953.4302,18.623352,1.3046265,12.504578,-288.55048,-295.71945,50.106552
1734660158.9078405,-25.45166,-11.352539,966.1865,18.15033,2.1896362,12.039185,-288.55048,-295.71945,50.106552
1734660158.9119625,-20.935059,-8.911133,960.69336,17.77649,3.3721924,11.497498,-288.55048,-295.71945,50.106552
1734660158.916021,-18.981934,-6.286621,965.20996,17.486572,4.5394897,10.978699,-288.55048,-295.71945,50.106552
1734660158.9224107,-13.000488,-6.5307617,974.6704,16.799927,5.470276,10.704041,-288.55048,-295.71945,50.106552
1734660158.9282844,9.82666,-4.333496,989.1968,16.227722,6.2332153,10.620117,-288.55048,-295.71945,50.106552
1734660158.9325054,18.554688,-3.6621094,995.91064,15.045166,6.6604614,11.024475,-288.55048,-295.71945,50.106552
1734660158.938185,19.77539,2.0751953,995.3613,13.656616,6.3476563,11.680603,-288.55048,-295.71945,50.106552
1734660158.9406781,18.188477,4.760742,994.812,12.214661,5.393982,12.435913,-288.55048,-295.71945,50.106552
1734660158.9449003,15.563965,6.591797,991.8823,10.597229,3.8146973,13.183594,-288.55048,-295.71945,50.106552
1734660158.9563627,5.6152344,0.9765625,981.9336,8.964539,1.9683838,13.839722,-297.5117,-276.00482,51.834366
1734660158.957073,9.70459,2.8076172,983.5205,7.926941,0.35095215,14.266968,-297.5117,-276.00482,51.834366
1734660158.9610572,2.0141602,5.493164,975.28076,6.9351196,-1.0528564,14.663696,-297.5117,-276.00482,51.834366
1734660158.9652686,-2.5634766,1.7089844,969.72656,6.1798096,-2.3422241,14.945984,-297.5117,-276.00482,51.834366
1734660158.9733481,4.272461,3.2958984,970.8252,5.9509277,-3.768921,15.159607,-297.5117,-276.00482,51.834366
1734660158.9774961,-2.6855469,5.004883,982.91016,5.9509277,-4.7302246,15.312195,-297.5117,-276.00482,51.834366
1734660158.9815683,-7.385254,2.0751953,984.8633,6.0195923,-4.8065186,15.174866,-297.5117,-276.00482,51.834366
1734660158.9885287,5.065918,-9.216309,980.5908,6.2789917,-4.1885376,15.167236,-297.5117,-276.00482,51.834366
1734660158.9899344,-7.1411133,21.42334,991.6382,6.92749,-2.7008057,15.426636,-297.5117,-276.00482,51.834366
1734660158.9979413,-18.493652,12.756348,1001.0376,6.401062,-1.6784668,14.526367,-297.5117,-276.00482,51.834366
1734660159.0020273,-9.765625,7.1411133,1002.7466,5.7678223,-0.831604,13.175964,-297.5117,-276.00482,51.834366
1734660159.0061579,-6.8969727,10.375977,1009.0332,5.050659,0.038146973,12.290955,-297.5117,-276.00482,51.834366
1734660159.010285,-9.94873,12.084961,1012.3291,4.180908,0.76293945,11.604309,-297.5117,-276.00482,51.834366
1734660159.0189915,-13.061523,12.634277,1013.5498,3.1585693,1.4266968,11.192322,-297.5117,-276.00482,51.834366
1734660159.0225265,-10.7421875,13.366699,1009.9487,2.1591187,1.6326904,10.955811,-297.5117,-276.00482,51.834366
1734660159.0266435,-11.474609,16.723633,1005.79834,0.74005127,1.6708374,10.734558,-297.5117,-276.00482,51.834366
1734660159.0314777,-12.390137,21.78955,996.521,-0.76293945,1.739502,10.33783,-297.5117,-276.00482,51.834366
1734660159.0388868,-5.554199,19.16504,980.65186,-2.1514893,1.7471313,10.032654,-297.5117,-276.00482,51.834366
1734660159.043025,-5.065918,12.268066,968.6279,-3.3111572,1.7089844,9.819031,-297.5117,-276.00482,51.834366
1734660159.0473454,-7.8125,1.3427734,945.1904,-4.0664673,1.6326904,9.643555,-297.5117,-276.00482,51.834366
1734660159.055581,0.48828125,-10.253906,938.0493,-3.8757324,1.7547607,9.69696,-297.5117,-276.00482,51.834366
1734660159.059393,-7.080078,-8.117676,938.0493,-3.1204224,2.2354126,9.895325,-297.5117,-276.00482,51.834366
1734660159.0635312,-0.36621094,0.4272461,949.89014,-2.319336,2.6168823,9.82666,-297.5117,-276.00482,51.834366
1734660159.067563,8.239746,-0.9765625,963.6841,-2.029419,2.7770996,9.58252,-297.5117,-276.00482,51.834366
1734660159.0718877,13.61084,-6.3476563,970.7031,-1.876831,2.746582,9.590149,-272.42035,-283.17377,44.923115
1734660159.07583,18.981934,-6.958008,979.61426,-1.449585,2.6931763,9.811401,-272.42035,-283.17377,44.923115
1734660159.0844202,16.662598,-1.953125,990.4175,-1.0223389,2.1591187,10.231018,-272.42035,-283.17377,44.923115
1734660159.088155,15.197754,-2.1972656,995.4834,-0.90789795,0.9460449,10.520935,-272.42035,-283.17377,44.923115
1734660159.092095,4.760742,3.2958984,1008.1177,-0.6790161,-0.16021729,10.795593,-272.42035,-283.17377,44.923115
1734660159.0965946,-9.155273,11.413574,1007.9956,-0.7095337,-1.3580322,10.612488,-272.42035,-283.17377,44.923115
1734660159.1048257,-8.117676,14.587402,1011.8408,-0.831604,-2.8686523,10.299683,-272.42035,-283.17377,44.923115
1734660159.1085289,-16.418457,12.6953125,1018.98193,-1.3961792,-3.9215088,10.101318,-272.42035,-283.17377,44.923115
1734660159.1127632,-18.798828,7.507324,1007.1411,-1.5563965,-3.8986206,9.44519,-272.42035,-283.17377,44.923115
1734660159.1167927,-15.075684,3.2958984,1007.6294,-0.8621216,-2.7618408,8.430481,-272.42035,-283.17377,44.923115
1734660159.1209798,-13.916016,-10.925293,1009.7046,0.1373291,-0.75531006,7.385254,-272.42035,-283.17377,44.923115
1734660159.1292155,2.319336,-1.5869141,1014.4043,1.9073486,1.9454956,6.828308,-272.42035,-283.17377,44.923115
1734660159.1331596,-1.8920898,17.27295,1018.0054,3.326416,5.1879883,6.210327,-272.42035,-283.17377,44.923115
1734660159.1372414,1.6479492,18.615723,1038.3911,3.8604736,7.4539185,5.180359,-272.42035,-283.17377,44.923115
1734660159.1413815,6.3476563,15.74707,1044.0063,3.791809,8.850098,4.524231,-272.42035,-283.17377,44.923115
1734660159.1497533,-1.5258789,20.874023,1043.8843,3.8375854,9.880066,4.2037964,-272.42035,-283.17377,44.923115
1734660159.1557007,-12.451172,17.27295,1056.3965,3.829956,10.932922,3.3798218,-272.42035,-283.17377,44.923115
1734660159.157742,-23.55957,24.902344,1067.1387,3.692627,12.229919,2.5177002,-272.42035,-283.17377,44.923115
1734660159.1617508,-45.34912,36.8042,1073.8525,3.1280518,13.626099,1.4266968,-272.42035,-283.17377,44.923115
1734660159.1659675,-55.29785,41.44287,1064.7583,1.9302368,14.816284,-0.2670288,-272.42035,-283.17377,44.923115
1734660159.1741273,-66.101074,42.663574,1058.2275,0.34332275,15.785217,-2.128601,-272.42035,-283.17377,44.923115
1734660159.1781628,-69.39697,40.100098,1051.3916,-1.5640259,16.13617,-4.005432,-272.42035,-283.17377,44.923115
1734660159.182236,-59.2041,32.409668,1039.0625,-3.8070679,15.777588,-5.958557,-272.42035,-283.17377,44.923115
1734660159.1887505,-50.231934,30.273438,1023.19336,-6.2561035,15.167236,-7.484436,-272.42035,-283.17377,44.923115
1734660159.1905775,-35.461426,17.27295,1016.8457,-8.605957,14.99176,-8.872986,-272.42035,-283.17377,44.923115
1734660159.19864,-105.651855,-69.58008,833.0078,-11.245728,11.703491,-9.117126,-292.13498,-274.2126,63.92905
1734660159.2052948,-288.208,-101.68457,594.36035,-10.9939575,-3.4332275,-8.163452,-292.13498,-274.2126,63.92905
1734660159.2069504,-70.373535,76.293945,977.9053,-4.5318604,-20.637512,-10.139465,-292.13498,-274.2126,63.92905
1734660159.2127125,42.175293,90.026855,1172.6074,-9.3688965,-29.99878,-10.261536,-292.13498,-274.2126,63.92905
1734660159.22329,88.256836,118.34717,1355.2856,-19.569397,-29.396057,-8.033752,-292.13498,-274.2126,63.92905
1734660159.2235193,124.694824,121.88721,1365.3564,-33.53119,-23.925781,-5.1193237,-292.13498,-274.2126,63.92905
1734660159.2273366,105.59082,69.45801,1293.396,-47.50824,-17.433167,-2.4108887,-292.13498,-274.2126,63.92905
1734660159.2314663,62.072754,-7.8125,1117.3096,-56.800842,-11.58905,-0.5645752,-292.13498,-274.2126,63.92905
1734660159.2389138,15.258789,-85.14404,981.4453,-59.570313,-5.4779053,-0.08392334,-292.13498,-274.2126,63.92905
1734660159.2437122,21.606445,-94.11621,951.0498,-56.289673,1.3504028,-0.78582764,-292.13498,-274.2126,63.92905
1734660159.2478018,54.992676,-71.3501,1017.395,-52.734375,9.674072,-1.9378662,-292.13498,-274.2126,63.92905
1734660159.2518425,123.413086,-72.387695,1089.9658,-51.605225,18.463135,-2.7923584,-292.13498,-274.2126,63.92905
1734660159.2560716,139.95361,-95.03174,1119.751,-53.588867,25.44403,-1.4343262,-292.13498,-274.2126,63.92905
1734660159.264193,82.27539,-73.12012,1111.145,-55.70984,29.380798,1.9378662,-292.13498,-274.2126,63.92905
1734660159.2711391,12.756348,-39.79492,1110.1685,-57.868958,29.98352,4.966736,-292.13498,-274.2126,63.92905
1734660159.2727354,-0.79345703,-9.155273,1111.4502,-60.684204,28.411865,6.5689087,-292.13498,-274.2126,63.92905
1734660159.2766285,5.126953,19.714355,1114.9292,-64.52179,26.496887,7.3928833,-292.13498,-274.2126,63.92905
1734660159.2862055,1.7089844,31.188965,1112.854,-70.373535,24.375916,7.888794,-292.13498,-274.2126,63.92905
1734660159.2888288,-11.047363,26.062012,1085.4492,-77.85034,21.469116,8.102417,-292.13498,-274.2126,63.92905
1734660159.29281,-43.884277,5.92041,1071.8994,-85.85358,18.432617,8.338928,-292.13498,-274.2126,63.92905
1734660159.2971704,-51.086426,-20.141602,1036.9873,-93.66608,15.266418,8.102417,-292.13498,-274.2126,63.92905
1734660159.305689,-68.90869,-49.194336,1009.2163,-99.59412,13.282776,7.1411133,-292.13498,-274.2126,63.92905
1734660159.3093998,-69.45801,-69.21387,1001.3428,-103.767395,12.130737,5.7373047,-292.13498,-274.2126,63.92905
1734660159.3134356,-62.13379,-94.54346,981.2012,-106.69708,12.031555,4.173279,-292.13498,-274.2126,63.92905
1734660159.3223305,-54.44336,-111.6333,956.1157,-108.673096,12.626648,2.8762817,-292.13498,-274.2126,63.92905
1734660159.3225477,-45.59326,-144.89746,942.26074,-109.21478,14.144897,1.7166138,-283.17377,-344.1099,48.37874
1734660159.329711,-44.73877,-158.02002,955.5664,-107.940674,16.555786,0.8010864,-283.17377,-344.1099,48.37874
1734660159.3337853,-50.90332,-175.41504,983.94775,-106.74286,18.211365,0.091552734,-283.17377,-344.1099,48.37874
1734660159.3393486,-29.47998,-191.52832,992.9199,-105.87311,19.088745,-0.76293945,-283.17377,-344.1099,48.37874
1734660159.3421092,-21.484375,-204.10156,1021.3013,-104.05731,20.462036,-1.5640259,-283.17377,-344.1099,48.37874
1734660159.3501961,-15.258789,-228.45459,1026.1841,-101.98212,21.781921,-2.0217896,-283.17377,-344.1099,48.37874
1734660159.3543024,-13.183594,-250.06104,1029.7852,-98.61755,23.07129,-1.8844604,-283.17377,-344.1099,48.37874
1734660159.3584764,2.0751953,-271.3623,1031.189,-94.09332,23.93341,-1.0910034,-283.17377,-344.1099,48.37874
1734660159.362516,11.71875,-258.97217,1044.6167,-89.47754,23.918152,0.8773804,-283.17377,-344.1099,48.37874
1734660159.3666513,9.765625,-239.01367,1027.2217,-86.52496,22.354126,3.1661987,-283.17377,-344.1099,48.37874
1734660159.3747566,-12.6953125,-201.53809,1030.5176,-84.9762,19.798279,5.180359,-283.17377,-344.1099,48.37874
1734660159.3790376,-21.362305,-196.04492,1025.3296,-86.22742,15.937805,6.378174,-283.17377,-344.1099,48.37874
1734660159.3830643,-33.75244,-197.93701,1031.189,-88.54675,12.283325,6.919861,-283.17377,-344.1099,48.37874
1734660159.3872287,-26.000977,-211.36475,1017.27295,-92.65137,8.056641,7.019043,-283.17377,-344.1099,48.37874
1734660159.3953571,-28.320313,-230.34668,986.8164,-97.3053,5.0354004,6.7214966,-283.17377,-344.1099,48.37874
1734660159.3994076,-24.597168,-231.81152,979.61426,-100.90637,3.9672852,6.67572,-283.17377,-344.1099,48.37874
1734660159.4050376,-39.733887,-231.75049,974.06006,-104.911804,4.005432,6.790161,-283.17377,-344.1099,48.37874
1734660159.4075851,-56.030273,-231.32324,965.88135,-109.45892,3.9901733,6.2408447,-283.17377,-344.1099,48.37874
1734660159.41187,-61.21826,-268.61572,924.3164,-113.86871,4.257202,5.531311,-283.17377,-344.1099,48.37874
1734660159.4236631,-73.24219,-260.68115,935.73,-116.500854,4.776001,5.264282,-283.17377,-344.1099,48.37874
1734660159.4239678,-55.17578,-290.89355,891.78467,-119.16351,4.8675537,5.0201416,-283.17377,-344.1099,48.37874
1734660159.428073,-47.36328,-289.7339,934.8755,-119.72809,6.126404,5.1879883,-283.17377,-344.1099,48.37874
1734660159.4321907,-62.561035,-311.03516,953.3081,-121.147156,6.7367554,6.0195923,-283.17377,-344.1099,48.37874
1734660159.4403718,-35.339355,-366.8213,917.3584,-122.291565,7.003784,6.1416626,-283.17377,-344.1099,48.37874
1734660159.444436,-38.269043,-394.5923,926.6968,-120.82672,8.796692,6.2408447,-283.17377,-344.1099,48.37874
1734660159.4484813,-21.850586,-424.4995,897.64404,-117.630005,12.519836,5.6991577,-293.92722,-419.38394,24.18937
1734660159.4547098,-29.968262,-422.42432,964.4165,-112.38861,15.136719,5.706787,-293.92722,-419.38394,24.18937
1734660159.4568474,-48.76709,-445.00732,923.8281,-108.61206,16.410828,5.9051514,-293.92722,-419.38394,24.18937
1734660159.4648983,-35.339355,-454.5288,934.26514,-103.19519,17.280579,5.9509277,-293.92722,-419.38394,24.18937
1734660159.4734097,-35.15625,-458.25195,923.7671,-99.03717,16.571045,6.80542,-293.92722,-419.38394,24.18937
1734660159.4735916,-54.992676,-443.29834,940.979,-95.25299,14.976501,7.507324,-293.92722,-419.38394,24.18937
1734660159.4791524,-92.40723,-401.24512,949.4629,-93.13202,12.687683,7.2784424,-293.92722,-419.38394,24.18937
1734660159.4888182,-11.230469,-312.74414,960.7544,-93.02521,10.612488,4.974365,-293.92722,-419.38394,24.18937
1734660159.489601,-27.34375,-455.32227,909.60693,-96.221924,9.162903,4.40979,-293.92722,-419.38394,24.18937
1734660159.4935265,-75.927734,-521.42334,882.38525,-94.74182,12.329102,6.55365,-293.92722,-419.38394,24.18937
1734660159.4976861,-121.520996,-514.83154,891.6626,-92.63611,14.144897,6.3705444,-293.92722,-419.38394,24.18937
1734660159.5060325,-88.50098,-463.25684,877.50244,-92.49878,9.346008,4.699707,-293.92722,-419.38394,24.18937
1734660159.5099697,-77.819824,-398.37646,896.5454,-95.09277,5.065918,5.1498413,-293.92722,-419.38394,24.18937
1734660159.5139868,-111.572266,-368.34717,912.3535,-101.29547,1.2054443,5.5389404,-293.92722,-419.38394,24.18937
1734660159.5181034,-84.77783,-418.9453,905.9448,-109.13849,-2.632141,4.2266846,-293.92722,-419.38394,24.18937
1734660159.5222502,-51.452637,-453.3081,842.95654,-115.8371,-6.1416626,3.7155151,-293.92722,-419.38394,24.18937
1734660159.5303986,-27.46582,-477.11182,833.5571,-119.255066,-7.3776245,3.3187866,-293.92722,-419.38394,24.18937
1734660159.5344853,-33.02002,-493.46924,856.4453,-121.62018,-6.9122314,3.7155151,-293.92722,-419.38394,24.18937
1734660159.5386302,-34.851074,-494.50684,869.2627,-124.54224,-6.149292,5.1727295,-293.92722,-419.38394,24.18937
1734660159.5427384,-47.36328,-525.26855,792.2363,-126.80817,-4.837036,6.5078735,-293.92722,-419.38394,24.18937
1734660159.5508602,-53.894043,-552.9785,773.4375,-124.046326,-2.8686523,9.162903,-293.92722,-419.38394,24.18937
1734660159.5549994,-15.380859,-610.65674,789.7339,-121.780396,-3.7612915,10.055542,-293.92722,-419.38394,24.18937
1734660159.5591142,-32.287598,-597.65625,779.05273,-118.45398,-5.027771,11.779785,-293.92722,-419.38394,24.18937
1734660159.5672433,-50.476074,-579.10156,785.0342,-114.868164,-5.5236816,12.527466,-293.92722,-419.38394,24.18937
1734660159.5713584,-52.612305,-592.041,765.38086,-111.93085,-7.293701,12.252808,-297.5117,-473.15112,-44.923115
1734660159.5754285,-63.415527,-589.9048,767.27295,-109.191895,-9.216309,12.413025,-297.5117,-473.15112,-44.923115
1734660159.5796525,-49.926758,-590.02686,759.7046,-107.20825,-10.353088,12.794495,-297.5117,-473.15112,-44.923115
1734660159.58777,-59.020996,-599.8535,757.5073,-105.270386,-10.467529,13.2751465,-297.5117,-473.15112,-44.923115
1734660159.5918944,-62.13379,-603.57666,770.20264,-103.08075,-10.719299,13.168335,-297.5117,-473.15112,-44.923115
1734660159.5959387,-61.462402,-609.9243,768.0664,-101.64642,-10.787964,13.008118,-297.5117,-473.15112,-44.923115
1734660159.6001432,-59.2041,-619.50684,732.666,-100.19684,-10.093689,12.863159,-297.5117,-473.15112,-44.923115
1734660159.6081965,-71.28906,-628.05176,710.51025,-97.89276,-9.399414,12.924194,-297.5117,-473.15112,-44.923115
1734660159.6123693,-71.10596,-642.63916,692.44385,-95.00122,-9.658813,12.9776,-297.5117,-473.15112,-44.923115
1734660159.616517,-68.359375,-656.1279,689.4531,-91.75873,-9.971619,13.114929,-297.5117,-473.15112,-44.923115
1734660159.6204832,-81.29883,-635.1929,676.45264,-88.523865,-10.314941,13.320923,-297.5117,-473.15112,-44.923115
1734660159.6247027,-72.75391,-643.0664,629.3335,-86.23505,-12.649536,13.000488,-297.5117,-473.15112,-44.923115
1734660159.6327968,-87.95166,-661.3159,661.438,-83.27484,-14.183044,12.786865,-297.5117,-473.15112,-44.923115
1734660159.6369207,-79.89502,-666.626,623.71826,-79.67377,-16.868591,13.023376,-297.5117,-473.15112,-44.923115
1734660159.6410549,-56.57959,-688.9038,638.4888,-75.416565,-18.585205,12.886047,-297.5117,-473.15112,-44.923115
1734660159.6451838,-47.912598,-679.3823,657.8369,-70.56427,-18.669128,12.832642,-297.5117,-473.15112,-44.923115
1734660159.6533306,-60.97412,-690.2466,609.61914,-65.50598,-17.707825,12.535095,-297.5117,-473.15112,-44.923115
1734660159.6574848,-71.899414,-717.46826,573.85254,-58.73108,-15.708923,12.046814,-297.5117,-473.15112,-44.923115
1734660159.6615207,-55.114746,-712.4634,599.6704,-49.964905,-13.458252,11.672974,-297.5117,-473.15112,-44.923115
1734660159.6656952,-61.340332,-699.646,617.7368,-41.83197,-11.054993,11.413574,-297.5117,-473.15112,-44.923115
1734660159.6738517,-77.819824,-715.271,586.792,-34.39331,-9.353638,11.016846,-297.5117,-473.15112,-44.923115
1734660159.6778836,-50.476074,-724.3042,585.2661,-26.168823,-8.666992,10.665894,-297.5117,-473.15112,-44.923115
1734660159.6820383,-48.095703,-714.7827,602.417,-17.738342,-7.3013306,10.612488,-297.5117,-473.15112,-44.923115
1734660159.686199,-59.08203,-722.16797,580.7495,-9.506226,-6.2026978,10.559082,-297.5117,-473.15112,-44.923115
1734660159.6942358,-75.927734,-723.0835,572.81494,-1.1062622,-4.852295,10.71167,-297.5117,-473.15112,-44.923115
1734660159.698393,-82.03125,-711.4258,574.1577,7.209778,-4.1503906,10.665894,-279.5893,-534.0872,-86.3906
1734660159.7025232,-79.89502,-703.9795,571.59424,14.9383545,-3.7155151,10.368347,-279.5893,-534.0872,-86.3906
1734660159.7065728,-73.12012,-694.15283,570.92285,22.55249,-3.2196045,9.986877,-279.5893,-534.0872,-86.3906
1734660159.7108145,-67.56592,-686.7676,579.95605,29.899597,-2.4719238,9.536743,-279.5893,-534.0872,-86.3906
1734660159.718911,-59.509277,-684.021,585.99854,36.750793,-1.7242432,8.895874,-279.5893,-534.0872,-86.3906
1734660159.7230563,-58.47168,-689.81934,585.99854,43.556213,-0.8544922,8.529663,-279.5893,-534.0872,-86.3906
1734660159.726998,-67.62695,-699.89014,593.68896,51.101685,0.09918213,8.239746,-279.5893,-534.0872,-86.3906
1734660159.7312086,-69.58008,-704.22363,605.896,59.272766,0.9460449,7.865906,-279.5893,-534.0872,-86.3906
1734660159.7393904,-68.0542,-708.06885,614.1968,67.63458,1.8081665,7.0114136,-279.5893,-534.0872,-86.3906
1734660159.7435155,-62.74414,-709.5337,620.60547,76.37787,2.4032593,6.1416626,-279.5893,-534.0872,-86.3906
1734660159.7474897,-54.870605,-701.1719,635.86426,84.732056,2.7542114,5.4626465,-279.5893,-534.0872,-86.3906
1734660159.7516096,-44.311523,-694.8242,650.26855,92.12494,2.609253,4.91333,-279.5893,-534.0872,-86.3906
1734660159.755878,-33.02002,-685.18066,661.86523,98.54889,2.357483,4.501343,-279.5893,-534.0872,-86.3906
1734660159.7638676,-26.062012,-679.5044,658.1421,104.06494,2.0141602,4.0512085,-279.5893,-534.0872,-86.3906
1734660159.7717957,-20.812988,-662.1704,660.0342,108.932495,1.5945435,3.7384033,-279.5893,-534.0872,-86.3906
1734660159.7721298,-20.751953,-633.8501,669.2505,113.41095,1.3656616,3.5095215,-279.5893,-534.0872,-86.3906
1734660159.7761917,-30.88379,-619.01855,666.0156,118.125916,1.8386841,3.2196045,-279.5893,-534.0872,-86.3906
1734660159.7876701,-39.123535,-607.1167,665.2832,123.2605,2.3040771,3.2196045,-279.5893,-534.0872,-86.3906
1734660159.7884948,-45.288086,-587.03613,680.7251,128.7384,3.227234,3.288269,-279.5893,-534.0872,-86.3906
1734660159.7925026,-40.46631,-572.32666,701.84326,134.45282,4.0740967,3.4713745,-279.5893,-534.0872,-86.3906
1734660159.7966306,-38.45215,-570.6787,716.3696,140.12146,4.8675537,4.1503906,-279.5893,-534.0872,-86.3906
1734660159.8007584,-36.43799,-565.00244,720.2759,146.53778,5.493164,5.203247,-279.5893,-534.0872,-86.3906
1734660159.8088784,-29.35791,-556.5796,732.91016,153.41187,6.2179565,6.1187744,-279.5893,-534.0872,-86.3906
1734660159.81309,-13.183594,-544.67773,754.27246,160.35461,6.385803,6.942749,-279.5893,-534.0872,-86.3906
1734660159.8171172,-7.873535,-527.34375,751.8921,166.5039,5.569458,8.262634,-279.5893,-534.0872,-86.3906
1734660159.8230088,-0.9765625,-512.0239,733.21533,172.90497,4.989624,9.506226,-286.75824,-469.56662,-31.100618
1734660159.829435,-21.54541,-504.08936,742.43164,180.76324,5.2948,10.620117,-286.75824,-469.56662,-31.100618
1734660159.8334725,-17.8833,-491.94336,730.10254,188.73596,5.54657,11.238098,-286.75824,-469.56662,-31.100618
1734660159.8387132,-35.583496,-463.562,781.3721,197.16644,7.1258545,10.96344,-286.75824,-469.56662,-31.100618
1734660159.8417006,-13.427734,-440.30762,781.0669,204.37622,8.483887,10.269165,-286.75824,-469.56662,-31.100618
1734660159.845826,-0.6713867,-418.396,779.78516,211.62415,10.444641,9.788513,-286.75824,-469.56662,-31.100618
1734660159.8539689,-29.174805,-405.70068,860.83984,217.82684,11.917114,9.994507,-286.75824,-469.56662,-31.100618
1734660159.8580651,-3.90625,-411.6211,830.7495,221.13037,11.329651,9.925842,-286.75824,-469.56662,-31.100618
1734660159.8621874,-24.047852,-371.09375,910.8887,224.2279,11.199951,9.254456,-286.75824,-469.56662,-31.100618
1734660159.8663142,14.953613,-395.62988,870.3003,225.15106,11.772156,7.850647,-286.75824,-469.56662,-31.100618
1734660159.8746712,-0.48828125,-384.58252,900.2075,228.34778,13.877869,7.133484,-286.75824,-469.56662,-31.100618
1734660159.8788097,-28.320313,-342.04102,960.8154,229.43115,14.610291,6.690979,-286.75824,-469.56662,-31.100618
1734660159.8827357,-72.32666,-310.9131,1005.9204,227.77557,15.029907,6.187439,-286.75824,-469.56662,-31.100618
1734660159.8894424,-23.132324,-308.89893,990.8447,224.34998,14.144897,6.248474,-286.75824,-469.56662,-31.100618
1734660159.8909962,16.662598,-294.37256,968.3838,222.03064,15.869141,7.8201294,-286.75824,-469.56662,-31.100618
1734660159.8990333,-29.418945,-208.98438,1124.5728,219.53583,16.914368,10.7421875,-286.75824,-469.56662,-31.100618
1734660159.9047463,-53.527832,-182.06787,1162.2314,209.75494,14.320374,12.34436,-286.75824,-469.56662,-31.100618
1734660159.9072874,-58.83789,-150.93994,1200.1343,198.11249,11.177063,13.145447,-286.75824,-469.56662,-31.100618
1734660159.9115517,-54.6875,-155.45654,1177.4292,184.79156,8.827209,13.73291,-286.75824,-469.56662,-31.100618
1734660159.9225316,-64.575195,-140.99121,1173.645,172.6532,7.408142,14.61792,-286.75824,-469.56662,-31.100618
1734660159.9247007,-66.28418,-137.69531,1162.7197,160.88867,5.79834,15.510559,-286.75824,-469.56662,-31.100618
1734660159.9280891,-68.725586,-134.0332,1146.9116,150.5127,5.0735474,16.235352,-286.75824,-469.56662,-31.100618
1734660159.9318378,-73.97461,-121.76514,1183.8989,141.07513,4.7302246,16.76178,-286.75824,-469.56662,-31.100618
1734660159.9400911,-95.581055,-119.4458,1167.7246,130.79834,5.027771,16.937256,-286.75824,-469.56662,-31.100618
1734660159.9441466,-100.70801,-129.5166,1155.9448,120.4834,5.9432983,16.479492,-306.47287,-356.65555,36.284058
1734660159.9482195,-98.69385,-128.479,1151.6724,110.35156,6.8206787,15.838623,-306.47287,-356.65555,36.284058
1734660159.954014,-68.115234,-151.85547,1140.686,100.70801,7.8811646,15.1901245,-306.47287,-356.65555,36.284058
1734660159.9605348,-53.466797,-118.4082,1161.0107,92.178345,9.384155,15.220642,-306.47287,-356.65555,36.284058
1734660159.9646926,-43.45703,-109.86328,1146.9116,83.20618,10.360718,14.86969,-306.47287,-356.65555,36.284058
1734660159.9702568,-43.33496,-105.34668,1121.8262,75.43182,10.932922,14.663696,-306.47287,-356.65555,36.284058
1734660159.972871,-60.058594,-92.89551,1110.9619,68.618774,11.169434,14.556885,-306.47287,-356.65555,36.284058
1734660159.9769363,-68.725586,-81.11572,1106.6895,62.294006,10.810852,14.373779,-306.47287,-356.65555,36.284058
1734660159.9883246,-68.66455,-76.23291,1101.0132,56.861877,10.444641,14.11438,-306.47287,-356.65555,36.284058
1734660159.9891517,-80.322266,-72.5708,1105.0415,52.368164,9.69696,13.824463,-306.47287,-356.65555,36.284058
1734660159.9931974,-86.66992,-70.55664,1096.2524,48.225403,8.384705,13.73291,-306.47287,-356.65555,36.284058
1734660159.9974163,-86.364746,-62.25586,1083.5571,43.61725,6.3934326,14.183044,-306.47287,-356.65555,36.284058
1734660160.0015233,-83.43506,-54.44336,1073.3643,38.83362,4.3182373,14.678955,-306.47287,-356.65555,36.284058
1734660160.0095742,-75.56152,-49.25537,1081.3599,34.5459,2.5482178,14.74762,-306.47287,-356.65555,36.284058
1734660160.0137868,-67.38281,-59.143066,1066.7114,30.418396,0.9460449,14.343262,-306.47287,-356.65555,36.284058
1734660160.0179079,-62.98828,-67.07764,1051.3306,27.053833,0.15258789,13.793945,-306.47287,-356.65555,36.284058
1734660160.0220177,-66.223145,-71.59424,1038.4521,24.467468,0.15258789,13.22937,-306.47287,-356.65555,36.284058
1734660160.030247,-60.546875,-75.43945,1028.2593,22.628784,0.74005127,12.672424,-306.47287,-356.65555,36.284058
1734660160.0341787,-51.208496,-79.65088,1022.15576,21.438599,1.7471313,12.4053955,-306.47287,-356.65555,36.284058
1734660160.0383546,-41.503906,-81.11572,1015.0757,20.629883,2.784729,12.489319,-306.47287,-356.65555,36.284058
1734660160.042461,-34.5459,-73.791504,996.7041,20.03479,4.211426,13.114929,-306.47287,-356.65555,36.284058
1734660160.0467684,-44.006348,-63.415527,992.0654,19.966125,5.912781,14.007568,-306.47287,-356.65555,36.284058
1734660160.0557368,-52.856445,-54.93164,990.90576,20.248413,7.2021484,14.839172,-306.47287,-356.65555,36.284058
1734660160.0587769,-59.692383,-51.086426,997.3755,20.477295,7.9040527,15.342712,-306.47287,-356.65555,36.284058
1734660160.0628653,-55.358887,-59.265137,985.5957,20.79773,8.155823,15.701294,-306.47287,-356.65555,36.284058
1734660160.0670383,-54.56543,-67.19971,969.84863,21.93451,8.834839,16.021729,-299.30392,-310.05734,43.1953
1734660160.0751421,-54.016113,-77.941895,968.13965,23.986816,9.83429,16.090393,-299.30392,-310.05734,43.1953
1734660160.079215,-40.95459,-91.674805,956.2378,26.58844,10.864258,16.25061,-299.30392,-310.05734,43.1953
1734660160.0834239,-26.062012,-101.257324,939.33105,29.693604,12.199402,16.456604,-299.30392,-310.05734,43.1953
1734660160.0874257,-21.1792,-114.25781,925.0488,33.966064,14.045715,16.700745,-299.30392,-310.05734,43.1953
1734660160.091595,-21.484375,-116.760254,903.5034,39.29138,15.350342,17.27295,-299.30392,-310.05734,43.1953
1734660160.099748,-51.330566,-101.989746,898.5596,45.333862,15.815735,17.951965,-299.30392,-310.05734,43.1953
1734660160.1038573,-75.01221,-80.62744,883.05664,51.64337,15.083313,17.990112,-299.30392,-310.05734,43.1953
1734660160.1079607,-95.21484,-55.847168,870.6665,57.937622,13.633728,17.349243,-299.30392,-310.05734,43.1953
1734660160.1122556,-92.40723,-38.391113,865.1123,64.11743,12.22229,16.212463,-299.30392,-310.05734,43.1953
1734660160.122644,-70.92285,-27.648926,878.05176,70.991516,11.886597,14.846802,-299.30392,-310.05734,43.1953
1734660160.1242657,-69.45801,-28.808594,863.76953,78.39203,12.290955,13.641357,-299.30392,-310.05734,43.1953
1734660160.1284757,-79.711914,-38.024902,852.66113,86.70807,11.756897,12.916565,-299.30392,-310.05734,43.1953
1734660160.132457,-78.308105,-65.30762,835.022,95.314026,10.322571,12.893677,-299.30392,-310.05734,43.1953
1734660160.138569,-64.453125,-77.02637,801.2085,105.57556,10.2005005,13.244629,-299.30392,-310.05734,43.1953
1734660160.1447554,-87.95166,-79.28467,833.92334,117.630005,11.421204,13.702393,-299.30392,-310.05734,43.1953
1734660160.1488564,-110.47363,-68.0542,875.79346,128.67737,11.047363,13.435364,-299.30392,-310.05734,43.1953
1734660160.15445,-97.351074,-68.78662,861.8164,138.20648,10.20813,11.726379,-299.30392,-310.05734,43.1953
1734660160.1571803,-45.898438,-72.69287,800.29297,149.49036,11.878967,9.994507,-299.30392,-310.05734,43.1953
1734660160.1652586,-68.66455,-46.020508,832.7637,164.31427,16.998291,8.743286,-299.30392,-310.05734,43.1953
1734660160.1723166,-78.97949,-1.8920898,872.31445,177.20795,19.821167,7.4539185,-299.30392,-310.05734,43.1953
1734660160.1734123,-37.597656,6.8969727,830.44434,188.44604,22.338867,5.8288574,-299.30392,-310.05734,43.1953
1734660160.1776211,-51.086426,54.016113,860.9009,202.6062,27.893066,4.66156,-299.30392,-310.05734,43.1953
1734660160.1881058,-68.359375,86.242676,889.4043,214.32495,32.12738,3.4255981,-299.30392,-310.05734,43.1953
1734660160.1899035,-70.495605,129.45557,897.3999,223.67859,34.01947,2.456665,-299.30392,-310.05734,43.1953
1734660160.1939096,-79.89502,183.10547,963.1958,229.49219,33.14972,2.105713,-311.84958,-261.6669,27.644995
1734660160.1980996,-74.8291,236.20605,981.6284,231.0028,30.761719,2.3727417,-311.84958,-261.6669,27.644995
1734660160.2063613,-56.152344,267.5171,908.6304,229.40826,28.182983,3.2196045,-311.84958,-261.6669,27.644995
1734660160.2103825,-84.65576,297.97363,908.02,227.98157,28.060913,4.8065186,-311.84958,-261.6669,27.644995
1734660160.2144496,-107.23877,360.29053,859.8633,218.1549,25.306702,9.529114,-311.84958,-261.6669,27.644995
1734660160.2226706,-112.36572,379.02832,864.31885,213.43231,26.062012,11.360168,-311.84958,-261.6669,27.644995
1734660160.2267032,-119.32373,405.45654,885.13184,209.3811,28.297424,12.687683,-311.84958,-261.6669,27.644995
1734660160.2307434,-115.234375,386.1084,860.9619,205.05524,31.570435,13.22937,-311.84958,-261.6669,27.644995
1734660160.2349281,-78.24707,324.89014,749.5117,204.41437,38.42926,13.931274,-311.84958,-261.6669,27.644995
1734660160.2430246,-93.933105,347.7173,806.70166,208.87756,46.653748,15.319824,-311.84958,-261.6669,27.644995
1734660160.2471535,-134.46045,319.33594,783.2031,214.05792,54.93927,14.778137,-311.84958,-261.6669,27.644995
1734660160.2512388,-136.23047,319.88525,810.18066,222.75543,61.286926,13.22937,-311.84958,-261.6669,27.644995
1734660160.2555683,-188.7207,356.99463,873.53516,230.85785,64.74304,11.375427,-311.84958,-261.6669,27.644995
1734660160.259492,-169.4336,373.7793,852.2949,238.90686,67.352295,8.270264,-311.84958,-261.6669,27.644995
1734660160.2676172,-153.9917,430.23682,917.11426,247.02454,68.71033,5.2108765,-311.84958,-261.6669,27.644995
1734660160.2731514,-180.78613,467.65137,864.99023,249.99237,68.41278,2.9449463,-311.84958,-261.6669,27.644995
1734660160.2764676,-152.89307,508.23975,906.3721,249.99237,63.575745,1.5029907,-311.84958,-261.6669,27.644995
1734660160.2806323,-190.91797,554.1382,866.4551,249.99237,58.166504,1.8081665,-311.84958,-261.6669,27.644995
1734660160.2880964,-206.05469,573.0591,848.3887,248.10791,52.513123,2.998352,-311.84958,-261.6669,27.644995
1734660160.2939448,-198.85254,610.1074,813.47656,243.65234,47.77527,4.2419434,-311.84958,-261.6669,27.644995
1734660160.2976987,-231.9336,637.75635,805.0537,239.37988,44.906616,5.4244995,-311.84958,-261.6669,27.644995
1734660160.300574,-248.35205,653.19824,833.313,233.96301,41.404724,6.0195923,-311.84958,-261.6669,27.644995
1734660160.3096929,-203.125,630.8594,757.20215,225.57831,35.80475,7.2021484,-311.84958,-261.6669,27.644995
1734660160.3132231,-160.15625,607.2388,682.6782,220.6192,33.920288,8.995056,-311.84958,-261.6669,27.644995
1734660160.3168337,-228.02734,659.66797,814.27,218.8797,36.68213,10.673523,-331.5642,-109.326584,-57.0178
1734660160.3210647,-183.77686,635.49805,756.16455,211.31134,36.77368,11.100769,-331.5642,-109.326584,-57.0178
1734660160.3293066,-161.31592,619.3237,658.8745,205.9555,37.979126,12.1154785,-331.5642,-109.326584,-57.0178
1734660160.333329,-187.01172,658.3252,735.0464,206.53534,41.130066,13.35144,-331.5642,-109.326584,-57.0178
1734660160.3403077,-210.14404,691.04004,790.1001,206.03943,42.427063,14.213562,-331.5642,-109.326584,-57.0178
1734660160.34146,-220.39795,698.66943,721.1304,205.46722,43.9682,14.3966675,-331.5642,-109.326584,-57.0178
1734660160.345684,-242.55371,742.4927,730.46875,208.3664,46.10443,14.86969,-331.5642,-109.326584,-57.0178
1734660160.3541396,-278.86963,772.0337,750.1831,208.83179,46.058655,14.877319,-331.5642,-109.326584,-57.0178
1734660160.35773,-266.78467,784.30176,700.07324,206.4209,44.99054,13.877869,-331.5642,-109.326584,-57.0178
1734660160.3618555,-268.37158,796.44775,692.688,204.04816,43.304443,13.626099,-331.5642,-109.326584,-57.0178
1734660160.366015,-262.26807,790.4663,643.67676,200.30975,39.43634,14.198303,-331.5642,-109.326584,-57.0178
1734660160.3741262,-275.26855,816.3452,640.3198,196.63239,35.17151,15.060425,-331.5642,-109.326584,-57.0178
1734660160.378251,-260.49805,830.7495,638.855,190.91797,30.540466,15.869141,-331.5642,-109.326584,-57.0178
1734660160.3824239,-223.0835,821.10596,581.7261,183.815,26.687622,16.899109,-331.5642,-109.326584,-57.0178
1734660160.386421,-216.91895,809.99756,556.9458,176.94092,24.414063,18.409729,-331.5642,-109.326584,-57.0178
1734660160.390596,-221.13037,794.55566,535.70557,171.37909,22.369385,20.050049,-331.5642,-109.326584,-57.0178
1734660160.398697,-251.46484,804.5654,568.84766,166.5802,20.500183,21.247864,-331.5642,-109.326584,-57.0178
1734660160.4027915,-287.23145,817.688,573.1201,160.08759,18.249512,21.102905,-331.5642,-109.326584,-57.0178
1734660160.4068308,-252.56348,795.2881,524.292,153.0304,14.678955,20.15686,-331.5642,-109.326584,-57.0178
1734660160.4111376,-268.37158,831.4209,539.7949,146.98792,12.466431,19.119263,-331.5642,-109.326584,-57.0178
1734660160.4208279,-251.15967,857.9712,514.5874,139.16779,10.704041,17.822266,-331.5642,-109.326584,-57.0178
1734660160.4232876,-276.5503,822.3877,566.40625,132.04193,11.054993,16.51001,-331.5642,-109.326584,-57.0178
1734660160.4289827,-298.21777,864.7461,606.0791,125.190735,10.4904175,15.449524,-331.5642,-109.326584,-57.0178
1734660160.4315338,-288.94043,879.5166,574.9512,116.31012,9.338379,14.419556,-331.5642,-109.326584,-57.0178
1734660160.436509,-264.28223,895.38574,575.9888,108.551025,9.429932,13.2751465,-331.5642,-109.326584,-57.0178
1734660160.4456925,-257.8125,885.5591,607.666,101.501465,11.177063,12.428284,-336.94092,-28.675825,-155.50308
1734660160.4478643,-253.54004,888.12256,600.2197,93.59741,12.260437,11.688232,-336.94092,-28.675825,-155.50308
1734660160.454457,-250.06104,877.50244,521.24023,85.21271,12.001038,11.5737915,-336.94092,-28.675825,-155.50308
1734660160.4561212,-262.08496,921.2036,515.01465,78.956604,11.955261,11.260986,-336.94092,-28.675825,-155.50308
1734660160.464296,-273.86475,890.625,506.7749,71.36536,9.9105835,11.169434,-336.94092,-28.675825,-155.50308
1734660160.4717467,-285.03418,911.438,506.2256,63.987732,7.232666,10.871887,-336.94092,-28.675825,-155.50308
1734660160.4725075,-286.37695,914.3677,506.65283,54.93164,4.760742,9.918213,-336.94092,-28.675825,-155.50308
1734660160.4787183,-282.8369,904.1138,484.31396,44.509888,2.6016235,8.720398,-336.94092,-28.675825,-155.50308
1734660160.4808047,-260.19287,897.46094,477.72217,34.29413,0.869751,7.835388,-336.94092,-28.675825,-155.50308
1734660160.488803,-264.34326,893.7378,480.34668,24.673462,-0.6790161,7.9803467,-336.94092,-28.675825,-155.50308
1734660160.4931622,-300.78125,914.3677,515.9912,14.9383545,-1.2817383,8.277893,-336.94092,-28.675825,-155.50308
1734660160.4970856,-278.6255,888.97705,481.99463,3.7460327,-2.5405884,8.102417,-336.94092,-28.675825,-155.50308
1734660160.5011806,-268.00537,890.7471,467.77344,-6.4468384,-3.5324097,8.354187,-336.94092,-28.675825,-155.50308
1734660160.5092533,-187.56104,855.46875,468.13965,-17.02118,-4.837036,9.017944,-336.94092,-28.675825,-155.50308
1734660160.5134835,-173.64502,846.1304,450.80566,-27.328491,-5.9661865,11.245728,-336.94092,-28.675825,-155.50308
1734660160.5174625,-179.44336,854.3091,487.91504,-36.636353,-7.0877075,13.679504,-336.94092,-28.675825,-155.50308
1734660160.5215878,-218.07861,869.5679,524.59717,-46.905518,-8.56781,16.731262,-336.94092,-28.675825,-155.50308
1734660160.5257125,-268.12744,872.98584,523.2544,-57.174683,-10.7421875,18.821716,-336.94092,-28.675825,-155.50308
1734660160.5338733,-305.29785,873.90137,506.34766,-66.726685,-13.534546,19.508362,-336.94092,-28.675825,-155.50308
1734660160.5380018,-324.95117,872.6196,506.65283,-75.05798,-16.89148,18.875122,-336.94092,-28.675825,-155.50308
1734660160.5420356,-324.2798,879.94385,525.3906,-83.06885,-19.744873,17.326355,-336.94092,-28.675825,-155.50308
1734660160.5462575,-298.21777,885.9863,536.86523,-91.804504,-22.079468,15.533447,-336.94092,-28.675825,-155.50308
1734660160.5543702,-259.76563,880.4321,547.3633,-100.82245,-23.880005,14.427185,-336.94092,-28.675825,-155.50308
1734660160.5584426,-222.10693,865.35645,556.2744,-110.49652,-24.963379,14.152527,-336.94092,-28.675825,-155.50308
1734660160.5625918,-219.54346,841.4917,549.07227,-121.154785,-25.978088,14.831543,-336.94092,-28.675825,-155.50308
1734660160.566749,-254.15039,826.5991,550.23193,-131.14166,-27.313232,15.586853,-333.35645,-35.84478,-131.31372
1734660160.5748713,-268.5547,812.3169,555.11475,-140.4419,-29.708862,15.525818,-333.35645,-35.84478,-131.31372
1734660160.578979,-250.67139,803.52783,565.91797,-148.6435,-32.096863,15.090942,-333.35645,-35.84478,-131.31372
1734660160.5830514,-212.76855,812.8052,611.5112,-155.39551,-33.50067,15.052795,-333.35645,-35.84478,-131.31372
1734660160.587185,-177.12402,808.4717,609.0698,-161.45325,-33.88977,16.151428,-333.35645,-35.84478,-131.31372
1734660160.5953693,-167.05322,817.688,626.83105,-165.60364,-32.814026,17.913818,-333.35645,-35.84478,-131.31372
1734660160.599525,-171.93604,818.48145,668.2739,-168.7622,-31.166077,19.65332,-333.35645,-35.84478,-131.31372
1734660160.6034963,-186.34033,830.0781,701.1719,-172.04285,-29.464722,21.04187,-333.35645,-35.84478,-131.31372
1734660160.6076262,-215.39307,840.8203,719.4824,-176.0788,-27.893066,21.469116,-333.35645,-35.84478,-131.31372
1734660160.6118596,-253.60107,850.76904,721.98486,-181.33545,-26.512146,20.683289,-333.35645,-35.84478,-131.31372
1734660160.6199672,-292.84668,865.4175,724.6094,-187.53052,-25.527954,18.478394,-333.35645,-35.84478,-131.31372
1734660160.6240954,-304.93164,859.9243,724.6704,-195.35065,-25.604248,14.541626,-333.35645,-35.84478,-131.31372
1734660160.6280189,-282.77588,846.5576,705.5664,-204.14734,-26.58081,9.941101,-333.35645,-35.84478,-131.31372
1734660160.6322486,-227.17285,811.8286,694.33594,-212.91351,-27.519226,6.134033,-333.35645,-35.84478,-131.31372
1734660160.6405385,-191.95557,809.26514,708.313,-221.77887,-26.96991,4.508972,-333.35645,-35.84478,-131.31372
1734660160.6444995,-165.71045,808.1665,695.6177,-231.24695,-26.748657,4.623413,-333.35645,-35.84478,-131.31372
1734660160.648643,-161.68213,795.89844,687.6221,-240.46326,-27.20642,5.7678223,-333.35645,-35.84478,-131.31372
1734660160.652691,-173.9502,770.6909,685.3638,-249.37439,-28.305054,7.774353,-333.35645,-35.84478,-131.31372
1734660160.656977,-175.90332,758.3008,686.6455,-250,-30.586243,10.20813,-333.35645,-35.84478,-131.31372
1734660160.6649854,-198.48633,739.2578,725.09766,-250,-32.310486,12.321472,-333.35645,-35.84478,-131.31372
1734660160.6690836,-204.95605,711.18164,730.3467,-250,-33.164978,13.137817,-333.35645,-35.84478,-131.31372
1734660160.6731105,-230.46875,699.03564,812.74414,-250,-34.13391,12.733459,-333.35645,-35.84478,-131.31372
1734660160.6772501,-251.2207,658.02,824.2798,-250,-36.712646,11.581421,-333.35645,-35.84478,-131.31372
1734660160.6854842,-219.84863,617.98096,807.6782,-250,-38.223267,9.83429,-333.35645,-35.84478,-131.31372
1734660160.6895816,-165.1001,577.4536,895.01953,-250,-38.81073,8.773804,-333.35645,-35.84478,-131.31372
1734660160.6935925,-119.87305,559.021,907.1045,-250,-39.131165,8.850098,-322.60303,-150.54808,-20.733746
1734660160.6977403,-80.444336,544.67773,924.56055,-250,-39.352417,10.093689,-322.60303,-150.54808,-20.733746
1734660160.7018743,-84.41162,532.1655,937.07275,-250,-41.145325,12.763977,-322.60303,-150.54808,-20.733746
1734660160.7103455,-97.595215,547.6074,1017.395,-250,-45.11261,15.975952,-322.60303,-150.54808,-20.733746
1734660160.7141452,-94.055176,535.4004,977.84424,-250,-50.872803,18.302917,-322.60303,-150.54808,-20.733746
1734660160.7230344,-87.34131,471.13037,955.6885,-250,-54.618835,19.622803,-322.60303,-150.54808,-20.733746
1734660160.7231898,-111.87744,412.10938,913.7573,-250,-58.08258,20.736694,-322.60303,-150.54808,-20.733746
1734660160.7270389,-113.586426,352.6001,833.9844,-249.96185,-59.677124,21.0495,-322.60303,-150.54808,-20.733746
1734660160.7351484,-135.49805,308.04443,780.0293,-244.0567,-58.944702,20.79773,-322.60303,-150.54808,-20.733746
1734660160.7393856,-135.62012,276.42822,804.74854,-236.25946,-56.777954,20.080566,-322.60303,-150.54808,-20.733746
1734660160.7428355,-144.47021,246.03271,787.5366,-229.21753,-53.833008,18.875122,-322.60303,-150.54808,-20.733746
1734660160.7470818,-136.59668,255.7373,831.7261,-221.61102,-52.230835,17.539978,-322.60303,-150.54808,-20.733746
1734660160.7569082,-134.27734,245.6665,841.4917,-216.32385,-50.971985,16.159058,-322.60303,-150.54808,-20.733746
1734660160.759228,-115.600586,230.896,794.55566,-211.80725,-48.187256,14.823914,-322.60303,-150.54808,-20.733746
1734660160.7631874,-80.93262,211.30371,794.7998,-206.64215,-43.655396,13.717651,-322.60303,-150.54808,-20.733746
1734660160.767398,-51.14746,202.63672,815.0635,-202.3468,-39.33716,13.73291,-322.60303,-150.54808,-20.733746
1734660160.7721486,-44.433594,181.21338,794.55566,-198.31848,-35.40039,15.037537,-322.60303,-150.54808,-20.733746
1734660160.7796056,-65.979004,156.12793,769.2261,-192.58118,-30.906677,16.319275,-322.60303,-150.54808,-20.733746
1734660160.7837427,-70.007324,103.271484,715.6372,-184.81445,-26.000977,16.830444,-322.60303,-150.54808,-20.733746
1734660160.7880273,-40.58838,66.833496,750.97656,-174.5224,-22.727966,17.784119,-322.60303,-150.54808,-20.733746
1734660160.791985,-40.893555,42.3584,770.2637,-164.64996,-21.41571,19.77539,-322.60303,-150.54808,-20.733746
1734660160.80009,-53.344727,43.823242,775.26855,-153.8086,-21.652222,21.308899,-322.60303,-150.54808,-20.733746
1734660160.8060265,-51.330566,4.760742,792.8467,-142.41791,-21.720886,21.690369,-322.60303,-150.54808,-20.733746
1734660160.8083785,-84.41162,-7.385254,822.3877,-130.5542,-21.736145,21.820068,-322.60303,-150.54808,-20.733746
1734660160.8126118,-111.14502,-0.4272461,842.1631,-118.72101,-22.109985,21.43097,-288.55048,-281.38153,39.739677
1734660160.822743,-109.00879,-12.390137,845.3369,-108.10089,-23.345947,20.271301,-288.55048,-281.38153,39.739677
1734660160.8247511,-76.96533,-11.657715,866.1499,-98.594666,-24.887085,19.348145,-288.55048,-281.38153,39.739677
1734660160.8287904,-64.819336,-12.817383,873.23,-90.82794,-26.443481,19.41681,-288.55048,-281.38153,39.739677
1734660160.8329008,-60.058594,-20.446777,832.58057,-84.34296,-27.97699,20.217896,-288.55048,-281.38153,39.739677
1734660160.8411117,-88.012695,-29.418945,826.1719,-77.01874,-28.23639,21.087646,-288.55048,-281.38153,39.739677
1734660160.8452044,-133.54492,-45.47119,801.5747,-69.08417,-27.862549,20.896912,-288.55048,-281.38153,39.739677
1734660160.849232,-148.2544,-46.081543,787.2925,-60.10437,-26.481628,19.355774,-288.55048,-281.38153,39.739677
1734660160.8542886,-149.71924,-38.024902,797.0581,-50.567627,-23.147583,16.334534,-288.55048,-281.38153,39.739677
1734660160.8575048,-136.1084,-32.592773,792.8467,-41.130066,-19.218445,12.85553,-288.55048,-281.38153,39.739677
1734660160.8656259,-123.413086,-29.296875,804.9927,-32.295227,-15.861511,9.963989,-288.55048,-281.38153,39.739677
1734660160.8713355,-109.558105,-41.625977,778.01514,-24.261475,-14.015198,7.7819824,-288.55048,-281.38153,39.739677
1734660160.8739939,-95.703125,-50.65918,769.71436,-15.701294,-13.366699,6.6833496,-288.55048,-281.38153,39.739677
1734660160.878048,-89.2334,-65.30762,769.4702,-6.6833496,-12.9776,6.690979,-288.55048,-281.38153,39.739677
1734660160.8903036,-96.74072,-50.1709,795.71533,2.2659302,-12.565613,7.270813,-288.55048,-281.38153,39.739677
1734660160.8905168,-92.163086,-38.208008,807.55615,10.231018,-11.894226,7.4157715,-288.55048,-281.38153,39.739677
1734660160.894348,-70.19043,-23.742676,822.937,17.532349,-10.986328,7.5149536,-288.55048,-281.38153,39.739677
1734660160.8984044,-60.913086,-25.817871,849.7925,23.81134,-9.597778,7.926941,-288.55048,-281.38153,39.739677
1734660160.905847,-56.70166,-5.554199,891.1743,28.800964,-8.453369,8.613586,-288.55048,-281.38153,39.739677
1734660160.9107163,-65.61279,8.300781,929.1382,31.303406,-7.926941,9.208679,-288.55048,-281.38153,39.739677
1734660160.9147868,-75.56152,15.380859,951.355,31.89087,-7.4005127,9.628296,-288.55048,-281.38153,39.739677
1734660160.9220822,-84.8999,0.6713867,958.0078,31.730652,-6.378174,9.651184,-288.55048,-281.38153,39.739677
1734660160.9231043,-79.58984,6.286621,958.92334,32.051086,-4.8980713,9.44519,-288.55048,-281.38153,39.739677
1734660160.9311771,-76.59912,-0.061035156,954.895,32.470703,-3.40271,8.918762,-288.55048,-281.38153,39.739677
1734660160.9352257,-65.42969,-1.7700195,960.4492,33.62274,-2.0599365,8.255005,-288.55048,-281.38153,39.739677
1734660160.9394643,-52.490234,-3.8452148,957.88574,34.957886,-1.0757446,8.06427,-301.09616,-290.34274,48.37874
1734660160.9434123,-36.193848,-6.8359375,956.7261,36.224365,-0.8621216,8.384705,-301.09616,-290.34274,48.37874
1734660160.948188,-31.25,1.8920898,970.1538,37.635803,-1.0223389,9.178162,-301.09616,-290.34274,48.37874
1734660160.9557776,-40.283203,20.446777,975.40283,38.360596,-1.2359619,9.887695,-301.09616,-290.34274,48.37874
1734660160.9598436,-54.504395,10.864258,984.61914,38.6734,-1.3885498,10.368347,-301.09616,-290.34274,48.37874
1734660160.9640186,-51.51367,23.19336,984.80225,38.864136,-1.2588501,10.4599,-301.09616,-290.34274,48.37874
1734660160.9705205,-42.48047,31.066895,995.3613,38.29193,-1.4343262,10.421753,-301.09616,-290.34274,48.37874
1734660160.976164,-31.12793,45.532227,1015.3198,37.31537,-1.7242432,10.749817,-301.09616,-290.34274,48.37874
1734660160.9805892,-27.526855,59.265137,1020.9961,35.186768,-2.1133423,11.421204,-301.09616,-290.34274,48.37874
1734660160.9894867,-26.672363,80.99365,1023.6206,32.302856,-2.8533936,12.275696,-301.09616,-290.34274,48.37874
1734660160.989681,-35.52246,53.710938,1030.2124,28.59497,-3.2653809,13.023376,-301.09616,-290.34274,48.37874
1734660160.992723,-45.47119,74.645996,1043.8843,25.627136,-3.3340454,13.595581,-301.09616,-290.34274,48.37874
1734660161.000783,-48.76709,72.69287,1033.081,21.68274,-3.578186,13.648987,-301.09616,-290.34274,48.37874
1734660161.0055504,-44.555664,81.726074,1045.5322,18.478394,-3.0822754,13.702393,-301.09616,-290.34274,48.37874
1734660161.009117,-53.95508,83.80127,1053.1616,15.106201,-2.357483,13.938904,-301.09616,-290.34274,48.37874
1734660161.0131743,-59.631348,80.200195,1058.1055,11.3220215,-2.067566,13.893127,-301.09616,-290.34274,48.37874
1734660161.0227706,-63.720703,81.4209,1051.3916,7.865906,-1.5792847,13.671875,-301.09616,-290.34274,48.37874
1734660161.0254972,-57.434082,75.98877,1041.4429,4.8446655,-0.9994507,13.1073,-301.09616,-290.34274,48.37874
1734660161.0294597,-49.316406,72.387695,1032.8369,2.6550293,-0.17547607,12.374878,-301.09616,-290.34274,48.37874
1734660161.033656,-45.654297,64.7583,1029.419,0.90026855,0.44250488,11.8637085,-301.09616,-290.34274,48.37874
1734660161.037888,-49.25537,58.47168,1022.0337,-0.47302246,0.8010864,11.436462,-301.09616,-290.34274,48.37874
1734660161.0459445,-52.30713,57.678223,1027.2827,-1.197815,0.8544922,11.062622,-301.09616,-290.34274,48.37874
1734660161.050004,-58.22754,58.044434,1033.02,-1.4038086,0.91552734,10.780334,-301.09616,-290.34274,48.37874
1734660161.0557835,-55.236816,61.035156,1031.9824,-1.6860962,0.90026855,10.574341,-301.09616,-290.34274,48.37874
1734660161.0582879,-55.29785,66.467285,1032.1655,-2.1133423,0.6866455,10.398865,-301.09616,-290.34274,48.37874
1734660161.0663307,-49.316406,64.27002,1027.5269,-2.8076172,0.33569336,10.33783,-311.84958,-283.17377,62.201237
1734660161.0704262,-44.311523,53.100586,1020.3247,-3.753662,-0.19836426,10.482788,-311.84958,-283.17377,62.201237
1734660161.0744925,-53.222656,43.640137,1010.6201,-4.425049,-0.50354004,10.543823,-311.84958,-283.17377,62.201237
1734660161.0787656,-53.28369,31.982422,988.1592,-4.6463013,-0.63323975,10.414124,-311.84958,-283.17377,62.201237
1734660161.0868177,-46.38672,28.015137,971.1304,-3.9291382,-0.45776367,10.20813,-311.84958,-283.17377,62.201237
1734660161.0907898,-46.99707,24.536133,969.1162,-2.5253296,0.061035156,10.032654,-311.84958,-283.17377,62.201237
1734660161.09508,-45.59326,34.606934,981.9946,0.19073486,0.5187988,10.353088,-311.84958,-283.17377,62.201237
1734660161.10446,-45.898438,37.353516,983.09326,1.2664795,0.35858154,10.5896,-311.84958,-283.17377,62.201237
1734660161.1073637,-50.65918,40.46631,987.06055,2.1438599,0.16784668,10.810852,-311.84958,-283.17377,62.201237
1734660161.1122305,-51.696777,42.419434,990.53955,2.670288,-0.09918213,11.070251,-311.84958,-283.17377,62.201237
1734660161.1160338,-53.649902,43.5791,990.7837,2.8762817,-0.2822876,11.253357,-311.84958,-283.17377,62.201237
1734660161.1238494,-58.83789,44.921875,984.4971,2.6474,-0.289917,11.253357,-311.84958,-283.17377,62.201237
1734660161.1277747,-62.98828,46.203613,978.6377,1.953125,-0.36621094,10.971069,-311.84958,-283.17377,62.201237
1734660161.1318538,-63.476563,48.034668,967.8345,0.8773804,-0.5264282,10.772705,-311.84958,-283.17377,62.201237
1734660161.1387122,-53.588867,50.720215,956.17676,-0.39672852,-0.541687,10.917664,-311.84958,-283.17377,62.201237
1734660161.1440868,-48.76709,52.124023,953.9795,-1.8005371,-0.1296997,11.123657,-311.84958,-283.17377,62.201237
1734660161.1482215,-48.461914,52.30713,954.58984,-3.036499,0.74768066,11.253357,-311.84958,-283.17377,62.201237
1734660161.1550741,-51.330566,53.588867,957.51953,-3.9978027,2.0141602,11.222839,-311.84958,-283.17377,62.201237
1734660161.156533,-47.302246,44.128418,949.40186,-5.0735474,3.189087,11.199951,-311.84958,-283.17377,62.201237
1734660161.1605577,-44.921875,38.024902,948.73047,-5.180359,4.2419434,11.245728,-311.84958,-283.17377,62.201237
1734660161.1713083,-46.26465,30.700684,958.6792,-4.676819,5.0811768,11.268616,-311.84958,-283.17377,62.201237
1734660161.1728663,-43.518066,25.512695,971.5576,-3.479004,5.3634644,11.260986,-311.84958,-283.17377,62.201237
1734660161.1768937,-39.489746,13.793945,972.5952,-1.6708374,5.622864,11.253357,-311.84958,-283.17377,62.201237
1734660161.181173,-42.72461,4.699707,977.478,0.7324219,5.7525635,11.146545,-311.84958,-283.17377,62.201237
1734660161.1891801,-50.231934,3.540039,982.72705,3.4255981,5.7907104,11.009216,-293.92722,-279.5893,48.37874
1734660161.1932776,-59.509277,5.065918,990.7837,6.05011,5.569458,10.467529,-293.92722,-279.5893,48.37874
1734660161.1976016,-63.964844,5.554199,992.12646,8.2473755,4.9591064,9.674072,-293.92722,-279.5893,48.37874
1734660161.2015994,-62.194824,12.573242,992.6758,10.261536,4.020691,9.07135,-293.92722,-279.5893,48.37874
1734660161.2147396,-56.518555,26.000977,1003.41797,11.97052,2.8305054,8.827209,-293.92722,-279.5893,48.37874
1734660161.2149258,-49.621582,38.757324,1004.27246,12.901306,1.3198853,8.972168,-293.92722,-279.5893,48.37874
1734660161.219387,-51.757813,48.339844,1004.76074,12.786865,-0.289917,9.399414,-293.92722,-279.5893,48.37874
1734660161.2220783,-53.527832,52.79541,999.75586,12.016296,-1.8692017,10.08606,-293.92722,-279.5893,48.37874
1734660161.2305207,-59.32617,53.588867,997.49756,10.83374,-3.112793,10.673523,-293.92722,-279.5893,48.37874
1734660161.2343907,-58.410645,53.100586,985.1074,9.674072,-3.692627,11.09314,-293.92722,-279.5893,48.37874
1734660161.238613,-55.603027,51.02539,972.5342,8.613586,-3.6697388,11.291504,-293.92722,-279.5893,48.37874
1734660161.2428222,-52.55127,52.124023,974.06006,7.7209473,-3.3111572,11.489868,-293.92722,-279.5893,48.37874
1734660161.246761,-52.368164,47.24121,974.6704,6.706238,-2.822876,11.627197,-293.92722,-279.5893,48.37874
1734660161.254719,-53.28369,47.546387,972.7173,5.6610107,-2.2659302,11.787415,-293.92722,-279.5893,48.37874
1734660161.258802,-55.29785,44.86084,977.1118,4.852295,-1.4877319,12.008667,-293.92722,-279.5893,48.37874
1734660161.2630334,-55.541992,46.26465,981.4453,4.211426,-0.51116943,12.09259,-293.92722,-279.5893,48.37874
1734660161.267162,-61.828613,47.11914,992.9199,3.4561157,0.4043579,11.993408,-293.92722,-279.5893,48.37874
1734660161.275376,-63.293457,46.63086,995.54443,2.2964478,0.8163452,11.825562,-293.92722,-279.5893,48.37874
1734660161.2797146,-60.72998,49.316406,993.2251,0.9536743,0.8468628,11.825562,-293.92722,-279.5893,48.37874
1734660161.2834854,-55.908203,45.043945,994.50684,-0.34332275,0.90789795,11.764526,-293.92722,-279.5893,48.37874
1734660161.2875087,-53.100586,42.114258,989.8071,-1.121521,0.89263916,11.520386,-293.92722,-279.5893,48.37874
1734660161.2916377,-50.109863,37.841797,987.73193,-1.6403198,0.75531006,11.459351,-293.92722,-279.5893,48.37874
1734660161.2998958,-59.143066,39.123535,992.24854,-1.7318726,0.5493164,11.34491,-293.92722,-279.5893,48.37874
1734660161.3038416,-64.697266,46.50879,995.4834,-1.7929077,0.48065186,10.940552,-293.92722,-279.5893,48.37874
1734660161.307917,-59.99756,48.095703,996.09375,-2.1514893,0.16784668,10.528564,-293.92722,-279.5893,48.37874
1734660161.3122816,-60.668945,50.720215,999.75586,-2.7313232,-0.16021729,10.253906,-286.75824,-268.83585,38.011868
1734660161.3202777,-63.354492,50.964355,1001.9531,-3.3950806,-0.44250488,10.20813,-286.75824,-268.83585,38.011868
1734660161.3244061,-67.26074,53.222656,1008.60596,-3.982544,-0.46539307,10.391235,-286.75824,-268.83585,38.011868
1734660161.328556,-63.720703,51.02539,1009.9487,-4.5700073,-0.5340576,10.505676,-286.75824,-268.83585,38.011868
1734660161.3330836,-57.86133,47.851563,1004.8218,-4.9972534,-0.5950928,10.620117,-286.75824,-268.83585,38.011868
1734660161.339818,-55.847168,40.405273,995.7886,-5.2337646,-0.51116943,10.757446,-286.75824,-268.83585,38.011868
1734660161.3449268,-63.537598,36.254883,984.375,-5.3100586,-0.32806396,10.810852,-286.75824,-268.83585,38.011868
1734660161.3489778,-67.13867,32.348633,976.3794,-4.9057007,0.05340576,10.604858,-286.75824,-268.83585,38.011868
1734660161.3537147,-68.29834,30.090332,969.4824,-4.0893555,0.5950928,10.223389,-286.75824,-268.83585,38.011868
1734660161.3571763,-64.086914,30.151367,964.0503,-3.4103394,1.1901855,9.735107,-286.75824,-268.83585,38.011868
1734660161.3653975,-60.058594,31.860352,962.3413,-2.9067993,1.373291,9.529114,-286.75824,-268.83585,38.011868
1734660161.3694394,-56.274414,36.43799,967.65137,-2.5177002,1.4801025,9.552002,-286.75824,-268.83585,38.011868
1734660161.373482,-56.45752,40.283203,970.58105,-2.105713,1.3656616,9.498596,-286.75824,-268.83585,38.011868
1734660161.3776271,-53.649902,33.081055,972.29004,-1.8310547,1.0528564,9.475708,-286.75824,-268.83585,38.011868
1734660161.3818479,-54.260254,30.395508,968.75,-1.2893677,0.77056885,9.69696,-286.75824,-268.83585,38.011868
1734660161.3898635,-55.96924,28.259277,976.50146,-0.7171631,0.6637573,10.009766,-286.75824,-268.83585,38.011868
1734660161.3940308,-54.6875,32.043457,987.73193,0.061035156,0.37384033,10.353088,-286.75824,-268.83585,38.011868
1734660161.3982015,-59.753418,36.68213,997.9248,0.61035156,0.038146973,10.726929,-286.75824,-268.83585,38.011868
1734660161.406089,-62.62207,38.757324,1000.4883,1.0147095,-0.33569336,11.024475,-286.75824,-268.83585,38.011868
1734660161.4104576,-60.60791,39.978027,1000,1.121521,-0.92315674,11.390686,-286.75824,-268.83585,38.011868
1734660161.4145534,-60.11963,36.376953,997.8638,1.0070801,-1.4266968,11.749268,-286.75824,-268.83585,38.011868
1734660161.4222326,-58.59375,33.38623,993.8965,1.0681152,-1.7471313,11.993408,-286.75824,-268.83585,38.011868
1734660161.4227965,-62.316895,33.447266,991.94336,1.1901855,-1.8386841,12.031555,-286.75824,-268.83585,38.011868
1734660161.4268043,-59.753418,30.334473,994.0796,1.1901855,-1.6708374,11.962891,-286.75824,-268.83585,38.011868
1734660161.4380233,-61.035156,31.188965,995.72754,1.1901855,-1.3198853,11.825562,-286.75824,-268.83585,38.011868
1734660161.4391341,-61.950684,30.456543,992.0044,1.335144,-0.78582764,11.657715,-308.2651,-293.92722,38.011868
1734660161.443099,-66.52832,35.217285,993.16406,1.4877319,-0.2670288,11.390686,-308.2651,-293.92722,38.011868
1734660161.447533,-66.77246,37.902832,992.61475,1.3885498,0.015258789,11.169434,-308.2651,-293.92722,38.011868
1734660161.455967,-64.27002,42.114258,987.3657,0.5264282,-0.022888184,11.001587,-308.2651,-293.92722,38.011868
1734660161.4597003,-63.78174,41.992188,985.35156,-0.5187988,-0.18310547,10.780334,-308.2651,-293.92722,38.011868
1734660161.4635663,-67.44385,41.56494,983.4595,-1.5563965,-0.24414063,10.726929,-308.2651,-293.92722,38.011868
1734660161.4716759,-71.83838,43.518066,986.9995,-2.5863647,-0.25177002,10.734558,-308.2651,-293.92722,38.011868
1734660161.4762523,-69.64111,39.55078,986.4502,-3.5247803,-0.16021729,10.787964,-308.2651,-293.92722,38.011868
1734660161.4800475,-63.354492,27.954102,985.83984,-3.8833618,0.061035156,10.803223,-308.2651,-293.92722,38.011868
1734660161.4880788,-58.95996,20.568848,982.4829,-3.3187866,0.4272461,10.749817,-308.2651,-293.92722,38.011868
1734660161.4892993,-55.17578,13.61084,987.06055,-2.2964478,0.7247925,10.620117,-308.2651,-293.92722,38.011868
1734660161.4965448,-55.236816,12.268066,981.68945,-1.1749268,0.831604,10.520935,-308.2651,-293.92722,38.011868
1734660161.5004575,-56.09131,12.207031,979.61426,0.05340576,1.0147095,10.482788,-308.2651,-293.92722,38.011868
1734660161.504632,-55.236816,15.869141,978.2715,1.373291,1.0604858,10.498047,-308.2651,-293.92722,38.011868
1734660161.508724,-57.31201,22.644043,989.50195,2.5939941,0.7324219,10.5896,-308.2651,-293.92722,38.011868
1734660161.5128598,-54.19922,23.254395,992.6758,3.3111572,0.20599365,10.83374,-308.2651,-293.92722,38.011868
1734660161.521044,-52.734375,21.30127,993.103,3.6849976,-0.19073486,11.161804,-308.2651,-293.92722,38.011868
1734660161.5251205,-52.55127,18.859863,986.69434,3.944397,-0.5264282,11.276245,-308.2651,-293.92722,38.011868
1734660161.5292363,-54.07715,17.578125,983.6426,4.3563843,-0.6942749,11.2838745,-308.2651,-293.92722,38.011868
1734660161.5333362,-53.771973,20.935059,983.1543,4.760742,-0.6637573,11.21521,-308.2651,-293.92722,38.011868
1734660161.5374825,-54.382324,23.68164,982.2388,5.2719116,-0.7019043,11.299133,-308.2651,-293.92722,38.011868
1734660161.5456457,-57.18994,27.22168,990.35645,5.66864,-0.869751,11.383057,-308.2651,-293.92722,38.011868
1734660161.549616,-56.9458,31.066895,992.7368,5.844116,-1.2588501,11.550903,-308.2651,-293.92722,38.011868
1734660161.5537434,-54.870605,31.738281,991.1499,5.7296753,-1.701355,11.672974,-308.2651,-293.92722,38.011868
1734660161.5578558,-52.4292,26.245117,984.9243,5.508423,-2.1438599,11.688232,-293.92722,-297.5117,44.923115
1734660161.5660152,-51.574707,26.550293,977.0508,5.4855347,-2.2506714,11.665344,-293.92722,-297.5117,44.923115
1734660161.570163,-56.762695,22.338867,974.1821,5.9051514,-2.166748,11.726379,-293.92722,-297.5117,44.923115
1734660161.5742016,-55.358887,23.80371,969.4824,6.416321,-2.1362305,11.749268,-293.92722,-297.5117,44.923115
1734660161.5784168,-54.80957,23.4375,974.91455,6.9351196,-1.8692017,11.764526,-293.92722,-297.5117,44.923115
1734660161.5824726,-52.490234,23.864746,978.9429,7.331848,-1.5106201,11.619568,-293.92722,-297.5117,44.923115
1734660161.5906327,-56.274414,23.80371,983.58154,7.926941,-0.9765625,11.428833,-293.92722,-297.5117,44.923115
1734660161.5947416,-62.683105,31.12793,986.69434,8.277893,-0.47302246,11.276245,-293.92722,-297.5117,44.923115
1734660161.5987535,-61.462402,31.738281,985.35156,8.262634,-0.30517578,11.222839,-293.92722,-297.5117,44.923115
1734660161.6029148,-58.83789,32.89795,986.7554,8.216858,-0.24414063,11.077881,-293.92722,-297.5117,44.923115
1734660161.6110692,-55.908203,31.49414,982.72705,8.323669,-0.2670288,11.108398,-293.92722,-297.5117,44.923115
1734660161.615214,-56.09131,30.822754,979.0039,8.834839,-0.24414063,11.21521,-293.92722,-297.5117,44.923115
1734660161.6193073,-54.44336,29.23584,979.3701,9.521484,-0.2593994,11.33728,-293.92722,-297.5117,44.923115
1734660161.623307,-57.250977,31.738281,981.7505,10.08606,-0.2822876,11.34491,-293.92722,-297.5117,44.923115
1734660161.627526,-55.541992,29.785156,981.32324,10.398865,-0.4119873,11.3220215,-293.92722,-297.5117,44.923115
1734660161.6356132,-55.358887,32.043457,977.0508,10.513306,-0.76293945,11.33728,-293.92722,-297.5117,44.923115
1734660161.6398792,-55.847168,35.88867,974.1211,10.261536,-1.159668,11.352539,-293.92722,-297.5117,44.923115
1734660161.643855,-59.753418,38.208008,977.6001,9.82666,-1.5563965,11.474609,-293.92722,-297.5117,44.923115
1734660161.6480615,-58.83789,39.67285,980.896,9.361267,-1.7547607,11.543274,-293.92722,-297.5117,44.923115
1734660161.6561675,-59.32617,39.733887,983.21533,8.758545,-1.8615723,11.642456,-293.92722,-297.5117,44.923115
1734660161.6601715,-58.654785,37.78076,985.1074,8.31604,-1.8539429,11.703491,-293.92722,-297.5117,44.923115
1734660161.6645079,-61.462402,35.217285,987.24365,8.323669,-1.5029907,11.535645,-293.92722,-297.5117,44.923115
1734660161.668378,-63.476563,33.26416,991.6382,8.384705,-1.1291504,11.306763,-293.92722,-297.5117,44.923115
1734660161.6725776,-61.21826,36.010742,988.0371,8.331299,-0.8087158,10.864258,-293.92722,-297.5117,44.923115
1734660161.6807532,-56.884766,36.254883,984.13086,8.102417,-0.46539307,10.429382,-293.92722,-297.5117,44.923115
1734660161.6848016,-53.28369,38.146973,981.2622,7.873535,-0.2975464,10.261536,-297.5117,-279.5893,34.556244
1734660161.688975,-50.842285,42.48047,980.896,7.7438354,-0.4348755,10.131836,-297.5117,-279.5893,34.556244
1734660161.6930072,-51.696777,46.813965,981.68945,7.6141357,-0.7247925,10.345459,-297.5117,-279.5893,34.556244
1734660161.7011623,-54.138184,44.555664,982.7881,7.3013306,-1.0528564,10.658264,-297.5117,-279.5893,34.556244
1734660161.705314,-57.006836,45.10498,976.9287,6.576538,-1.5106201,10.917664,-297.5117,-279.5893,34.556244
1734660161.709387,-55.29785,42.663574,967.46826,6.0424805,-1.953125,10.925293,-297.5117,-279.5893,34.556244
1734660161.7135231,-50.41504,40.46631,967.7124,5.7525635,-2.0980835,10.978699,-297.5117,-279.5893,34.556244
1734660161.7217455,-52.06299,40.46631,971.4966,5.7373047,-2.1591187,11.100769,-297.5117,-279.5893,34.556244
1734660161.72587,-50.598145,36.132813,969.7876,5.592346,-2.2506714,11.238098,-297.5117,-279.5893,34.556244
1734660161.7297916,-45.47119,28.869629,968.3838,6.248474,-2.2583008,11.550903,-297.5117,-279.5893,34.556244
1734660161.734016,-46.14258,25.024414,974.06006,7.621765,-2.1896362,11.833191,-297.5117,-279.5893,34.556244
1734660161.742172,-52.06299,26.123047,982.7881,9.208679,-2.1362305,12.039185,-297.5117,-279.5893,34.556244
1734660161.7462535,-54.504395,30.395508,985.83984,10.528564,-2.2125244,12.069702,-297.5117,-279.5893,34.556244
1734660161.7504485,-54.748535,30.639648,982.91016,12.420654,-2.708435,12.09259,-297.5117,-279.5893,34.556244
1734660161.7585783,-53.95508,32.409668,978.39355,13.183594,-3.3340454,11.894226,-297.5117,-279.5893,34.556244
1734660161.762801,-43.518066,37.29248,974.4873,13.923645,-3.9978027,11.71875,-297.5117,-279.5893,34.556244
1734660161.7667277,-44.98291,45.47119,977.66113,14.671326,-4.4555664,11.779785,-297.5117,-279.5893,34.556244
1734660161.7733767,-57.678223,56.70166,990.72266,14.915466,-4.8599243,11.825562,-297.5117,-279.5893,34.556244
1734660161.7793393,-63.11035,63.78174,994.01855,15.052795,-5.126953,11.779785,-297.5117,-279.5893,34.556244
1734660161.783145,-70.19043,70.373535,998.53516,14.892578,-5.3710938,11.543274,-297.5117,-279.5893,34.556244
1734660161.7872262,-71.71631,68.237305,995.42236,14.213562,-5.4779053,11.413574,-297.5117,-279.5893,34.556244
1734660161.7913833,-66.589355,61.950684,983.5205,12.901306,-5.6381226,11.177063,-297.5117,-279.5893,34.556244
1734660161.7956085,-55.908203,53.222656,980.0415,11.84082,-5.455017,10.810852,-297.5117,-279.5893,34.556244
1734660161.8054786,-51.14746,44.433594,968.75,11.398315,-5.050659,10.498047,-297.5117,-279.5893,34.556244
1734660161.8078203,-48.950195,42.84668,965.39307,11.878967,-4.3945313,10.07843,-286.75824,-276.00482,34.556244
1734660161.8118353,-45.959473,48.034668,967.1631,12.458801,-3.8375854,9.811401,-286.75824,-276.00482,34.556244
1734660161.8159797,-45.532227,53.16162,974.73145,13.198853,-3.3111572,9.681702,-286.75824,-276.00482,34.556244
1734660161.82414,-50.65918,60.36377,983.27637,13.916016,-2.9525757,9.658813,-286.75824,-276.00482,34.556244
1734660161.8287203,-50.109863,66.345215,992.7368,14.49585,-3.0517578,9.70459,-286.75824,-276.00482,34.556244
1734660161.8322713,-50.476074,72.143555,996.64307,14.266968,-3.4713745,9.712219,-286.75824,-276.00482,34.556244
1734660161.8401544,-43.395996,79.65088,1000.97656,13.282776,-4.1275024,9.727478,-286.75824,-276.00482,34.556244
1734660161.8445802,-37.17041,77.14844,1002.9907,11.772156,-4.91333,9.902954,-286.75824,-276.00482,34.556244
1734660161.8492641,-37.78076,78.430176,1003.2959,10.101318,-5.6610107,10.414124,-286.75824,-276.00482,34.556244
1734660161.8548234,-38.085938,79.711914,998.0469,8.560181,-6.30188,11.08551,-286.75824,-276.00482,34.556244
1734660161.857473,-42.907715,79.46777,996.521,7.3242188,-6.538391,11.611938,-286.75824,-276.00482,34.556244
1734660161.8652465,-48.339844,77.75879,992.98096,6.05011,-6.4468384,11.817932,-286.75824,-276.00482,34.556244
1734660161.8717058,-50.65918,76.11084,990.72266,5.1116943,-6.072998,11.810303,-286.75824,-276.00482,34.556244
1734660161.8732805,-51.940918,73.791504,986.69434,4.310608,-5.592346,11.604309,-286.75824,-276.00482,34.556244
1734660161.8773665,-48.15674,76.84326,982.4219,3.8833618,-5.1345825,11.207581,-286.75824,-276.00482,34.556244
1734660161.881552,-49.194336,76.47705,981.50635,3.5629272,-4.890442,10.940552,-286.75824,-276.00482,34.556244
1734660161.889824,-46.875,76.11084,978.3325,3.3187866,-5.180359,10.818481,-286.75824,-276.00482,34.556244
1734660161.8937283,-47.424316,76.9043,973.87695,3.0288696,-5.8517456,10.848999,-286.75824,-276.00482,34.556244
1734660161.8979776,-45.654297,75.01221,970.459,2.9296875,-6.7367554,10.887146,-286.75824,-276.00482,34.556244
1734660161.9051902,-39.245605,70.495605,967.95654,3.0899048,-7.713318,10.83374,-286.75824,-276.00482,34.556244
1734660161.9063678,-31.433105,67.81006,960.6323,3.4713745,-8.613586,10.879517,-286.75824,-276.00482,34.556244
1734660161.9144042,-28.625488,67.07764,951.47705,3.9367676,-9.384155,11.024475,-286.75824,-276.00482,34.556244
1734660161.9184856,-31.799316,70.98389,946.5332,4.753113,-10.314941,11.375427,-286.75824,-276.00482,34.556244
1734660161.922535,-38.81836,70.06836,939.14795,5.683899,-11.619568,11.711121,-286.75824,-276.00482,34.556244
1734660161.926568,-41.870117,70.495605,929.5654,6.6833496,-13.259888,12.046814,-286.75824,-276.00482,34.556244
1734660161.9348862,-43.21289,75.37842,937.6831,7.9421997,-15.136719,12.336731,-283.17377,-279.5893,34.556244
1734660161.9390361,-37.109375,83.37402,947.63184,8.94165,-17.051697,12.588501,-283.17377,-279.5893,34.556244
1734660161.9427886,-37.17041,89.11133,949.03564,9.422302,-18.753052,12.840271,-283.17377,-279.5893,34.556244
1734660161.9471493,-34.79004,89.72168,943.4204,9.086609,-20.851135,12.9852295,-283.17377,-279.5893,34.556244
1734660161.9574656,-26.97754,86.42578,936.34033,8.4991455,-22.979736,12.85553,-283.17377,-279.5893,34.556244
1734660161.9617038,-17.944336,82.88574,938.65967,8.331299,-24.978638,12.626648,-283.17377,-279.5893,34.556244
1734660161.963504,-6.8969727,77.14844,933.95996,8.354187,-26.779175,12.237549,-283.17377,-279.5893,34.556244
1734660161.9674215,-1.0375977,74.279785,927.2461,9.246826,-27.656555,11.8637085,-283.17377,-279.5893,34.556244
1734660161.971569,-1.5869141,71.41113,929.9927,10.780334,-27.763367,11.360168,-283.17377,-279.5893,34.556244
1734660161.9799457,-0.91552734,73.24219,936.6455,12.428284,-27.687073,10.681152,-283.17377,-279.5893,34.556244
1734660161.9839547,1.3427734,75.8667,944.33594,13.793945,-27.420044,10.139465,-283.17377,-279.5893,34.556244
1734660161.9882083,7.9956055,80.444336,959.2285,14.556885,-27.22931,9.773254,-283.17377,-279.5893,34.556244
1734660161.996804,9.155273,81.23779,967.5293,14.831543,-27.038574,9.719849,-283.17377,-279.5893,34.556244
1734660162.0001674,7.9345703,79.77295,970.21484,14.656067,-27.061462,9.689331,-283.17377,-279.5893,34.556244
1734660162.0051198,8.972168,74.95117,969.17725,14.427185,-27.923584,9.69696,-283.17377,-279.5893,34.556244
1734660162.0083833,7.6293945,80.74951,971.5576,13.916016,-29.10614,9.69696,-283.17377,-279.5893,34.556244
1734660162.0124335,13.183594,82.70264,977.72217,12.72583,-30.288696,9.19342,-283.17377,-279.5893,34.556244
1734660162.0166254,16.357422,89.29443,999.0845,10.505676,-31.547546,8.4991455,-283.17377,-279.5893,34.556244
1734660162.0247753,18.310547,99.12109,1009.9487,7.4005127,-33.14209,8.010864,-283.17377,-279.5893,34.556244
1734660162.0290763,21.484375,95.458984,991.76025,3.829956,-35.15625,7.7285767,-283.17377,-279.5893,34.556244
1734660162.0329108,19.836426,93.87207,974.1211,1.1749268,-37.719727,7.759094,-283.17377,-279.5893,34.556244
1734660162.037052,31.066895,97.90039,962.40234,-0.48828125,-41.038513,7.789612,-283.17377,-279.5893,34.556244
1734660162.0412166,49.560547,102.84424,966.55273,-2.0446777,-44.883728,7.6141357,-283.17377,-279.5893,34.556244
1734660162.0495694,70.92285,106.81152,971.3135,-4.1122437,-48.950195,7.446289,-283.17377,-279.5893,34.556244
1734660162.05339,79.833984,81.35986,982.2388,-6.629944,-52.955627,7.9193115,-283.17377,-279.5893,34.556244
1734660162.0574882,79.46777,77.697754,962.40234,-8.781433,-55.93872,8.476257,-263.45914,-267.0436,46.65093
1734660162.0617247,56.884766,91.18652,958.9844,-9.681702,-56.95343,8.842468,-263.45914,-267.0436,46.65093
1734660162.0730524,47.973633,87.40234,960.4492,-10.116577,-57.487488,8.522034,-263.45914,-267.0436,46.65093
1734660162.0770621,64.27002,75.25635,947.7539,-10.536194,-57.991028,8.071899,-263.45914,-267.0436,46.65093
1734660162.0783865,86.242676,69.64111,938.65967,-11.169434,-58.769226,7.949829,-263.45914,-267.0436,46.65093
1734660162.0821757,107.1167,65.61279,932.37305,-12.031555,-59.9823,8.155823,-263.45914,-267.0436,46.65093
1734660162.0903149,119.93408,55.05371,927.36816,-12.084961,-61.12671,8.68988,-263.45914,-267.0436,46.65093
1734660162.0952032,116.21094,43.273926,921.875,-11.199951,-62.202454,9.757996,-263.45914,-267.0436,46.65093
1734660162.098461,102.35596,42.72461,919.7388,-9.0789795,-63.49182,10.932922,-263.45914,-267.0436,46.65093
1734660162.1031466,96.19141,47.424316,925.41504,-6.225586,-64.964294,11.84082,-263.45914,-267.0436,46.65093
1734660162.1107836,87.890625,52.124023,928.2837,-3.364563,-66.596985,12.306213,-263.45914,-267.0436,46.65093
1734660162.1149337,85.81543,32.65381,918.15186,-0.5950928,-68.89343,12.565613,-263.45914,-267.0436,46.65093
1734660162.1202435,88.1958,21.42334,925.6592,2.4642944,-72.04437,13.160706,-263.45914,-267.0436,46.65093
1734660162.1232364,96.80176,35.705566,946.28906,5.4473877,-75.90485,14.427185,-263.45914,-267.0436,46.65093
1734660162.1288373,111.572266,55.480957,965.4541,7.8811646,-79.5517,15.274048,-263.45914,-267.0436,46.65093
1734660162.1365478,126.28174,73.24219,982.17773,9.384155,-83.01544,15.426636,-263.45914,-267.0436,46.65093
1734660162.139522,136.96289,64.02588,982.7881,10.025024,-86.98273,15.037537,-263.45914,-267.0436,46.65093
1734660162.1434953,148.07129,54.07715,971.06934,10.856628,-92.0105,14.579773,-263.45914,-267.0436,46.65093
1734660162.1478395,162.65869,67.56592,982.91016,12.008667,-97.79358,14.770508,-263.45914,-267.0436,46.65093
1734660162.1559284,178.95508,81.17676,1005.5542,12.1536255,-104.19464,15.701294,-263.45914,-267.0436,46.65093
1734660162.1616843,190.67383,99.12109,1015.68604,11.260986,-110.22949,17.150879,-263.45914,-267.0436,46.65093
1734660162.164017,198.54736,107.788086,1012.8784,9.185791,-115.989685,18.836975,-263.45914,-267.0436,46.65093
1734660162.168361,206.11572,117.91992,1021.4844,7.0724487,-121.17767,20.355225,-263.45914,-267.0436,46.65093
1734660162.1722505,198.66943,131.95801,1013.7329,4.7836304,-126.17493,21.202087,-263.45914,-267.0436,46.65093
1734660162.1805277,213.07373,110.22949,996.3989,1.7623901,-131.82831,21.408081,-263.45914,-267.0436,46.65093
1734660162.1844616,217.83447,94.36035,965.39307,-2.5253296,-137.89368,22.903442,-215.06868,-265.25137,86.3906
1734660162.188619,228.94287,79.52881,915.7715,-8.216858,-143.68439,25.611877,-215.06868,-265.25137,86.3906
1734660162.194411,248.10791,55.603027,889.16016,-13.130188,-147.91107,28.877258,-215.06868,-265.25137,86.3906
1734660162.2008882,269.89746,52.06299,869.1406,-16.220093,-149.96338,31.532288,-215.06868,-265.25137,86.3906
1734660162.2064192,280.76172,48.217773,859.8633,-16.822815,-148.59009,32.75299,-215.06868,-265.25137,86.3906
1734660162.2091055,299.74365,-7.385254,885.376,-13.900757,-143.8675,33.00476,-215.06868,-265.25137,86.3906
1734660162.213394,306.9458,18.127441,903.6865,-9.20105,-137.4054,32.62329,-215.06868,-265.25137,86.3906
1734660162.2215583,307.86133,42.3584,918.9453,-5.607605,-131.15692,31.921387,-215.06868,-265.25137,86.3906
1734660162.2279744,303.1006,73.36426,949.2798,-2.1209717,-126.01471,30.662537,-215.06868,-265.25137,86.3906
1734660162.2295778,303.52783,82.15332,966.4917,-0.5493164,-121.62781,30.37262,-215.06868,-265.25137,86.3906
1734660162.2338169,315.91797,93.26172,995.7886,0.30517578,-117.67578,30.021667,-215.06868,-265.25137,86.3906
1734660162.2389305,326.0498,79.833984,983.6426,-0.50354004,-115.12756,29.47998,-215.06868,-265.25137,86.3906
1734660162.242237,342.65137,81.78711,947.876,-1.4953613,-114.868164,28.839111,-215.06868,-265.25137,86.3906
1734660162.2501066,340.39307,119.384766,918.82324,-1.7623901,-116.94336,29.151917,-215.06868,-265.25137,86.3906
1734660162.2542186,332.8247,97.473145,894.71436,-2.166748,-119.46869,30.87616,-215.06868,-265.25137,86.3906
1734660162.2583022,343.26172,59.32617,927.124,-0.9460449,-122.039795,32.989502,-215.06868,-265.25137,86.3906
1734660162.2625527,379.6997,-3.3569336,890.9302,-0.9841919,-126.182556,33.958435,-215.06868,-265.25137,86.3906
1734660162.266572,420.10498,-27.832031,865.1123,0.869751,-130.70679,33.836365,-215.06868,-265.25137,86.3906
1734660162.2746696,443.11523,-17.700195,860.9009,4.386902,-134.10187,33.27942,-215.06868,-265.25137,86.3906
1734660162.278817,451.35498,18.249512,886.16943,8.430481,-134.78088,32.806396,-215.06868,-265.25137,86.3906
1734660162.2828765,434.08203,66.52832,918.7622,11.2838745,-133.5907,31.593323,-215.06868,-265.25137,86.3906
1734660162.2888992,431.2744,37.841797,930.96924,11.581421,-131.83594,31.11267,-215.06868,-265.25137,86.3906
1734660162.2959614,435.6079,34.973145,932.6172,12.168884,-129.24957,30.891418,-215.06868,-265.25137,86.3906
1734660162.2991102,462.09717,63.293457,900.3906,11.512756,-127.334595,30.281067,-215.06868,-265.25137,86.3906
1734660162.3048453,464.17236,22.460938,894.4702,11.024475,-125.564575,29.930115,-93.19643,-265.25137,124.40247
1734660162.3074741,477.05078,59.265137,922.48535,10.169983,-123.26813,30.37262,-93.19643,-265.25137,124.40247
1734660162.3155248,509.09424,79.04053,924.74365,5.2719116,-121.421814,30.601501,-93.19643,-265.25137,124.40247
1734660162.3213239,539.978,54.138184,924.6216,-0.289917,-118.7439,31.227112,-93.19643,-265.25137,124.40247
1734660162.3238025,553.6499,80.078125,898.7427,-3.6087036,-112.86163,32.424927,-93.19643,-265.25137,124.40247
1734660162.3290138,532.34863,83.43506,890.625,-6.904602,-105.93414,32.62329,-93.19643,-265.25137,124.40247
1734660162.3320847,530.0293,35.949707,863.09814,-9.422302,-97.90802,32.211304,-93.19643,-265.25137,124.40247
1734660162.340188,537.41455,12.390137,868.9575,-9.979248,-89.44702,30.563354,-93.19643,-265.25137,124.40247
1734660162.3441975,582.0923,-72.75391,837.21924,-9.864807,-81.06232,29.36554,-93.19643,-265.25137,124.40247
1734660162.3490856,598.4497,-32.714844,818.84766,-6.3171387,-72.128296,28.800964,-93.19643,-265.25137,124.40247
1734660162.3565972,590.20996,-10.437012,817.07764,-3.2577515,-64.68201,28.388977,-93.19643,-265.25137,124.40247
1734660162.3627746,588.62305,6.713867,816.77246,0.5493164,-58.761597,27.83966,-93.19643,-265.25137,124.40247
1734660162.364707,575.5615,47.36328,823.18115,3.479004,-56.46515,27.45819,-93.19643,-265.25137,124.40247
1734660162.3717594,583.74023,32.226563,808.04443,4.6157837,-56.991577,28.48053,-93.19643,-265.25137,124.40247
1734660162.3769403,588.25684,33.569336,822.32666,7.217407,-57.69348,30.693054,-93.19643,-265.25137,124.40247
1734660162.3810594,578.18604,-0.6713867,832.9468,10.269165,-59.524536,32.65381,-93.19643,-265.25137,124.40247
1734660162.388595,570.55664,-6.7749023,827.8198,13.85498,-62.652588,33.935547,-93.19643,-265.25137,124.40247
1734660162.3893454,563.78174,5.2490234,829.5288,16.87622,-65.90271,35.38513,-93.19643,-265.25137,124.40247
1734660162.3955116,577.4536,9.277344,834.2285,18.966675,-68.12286,35.80475,-93.19643,-265.25137,124.40247
1734660162.3976283,593.6279,9.70459,819.9463,20.622253,-68.351746,34.90448,-93.19643,-265.25137,124.40247
1734660162.4056137,600.1587,15.930176,808.8989,22.537231,-65.75012,33.62274,-93.19643,-265.25137,124.40247
1734660162.4097483,583.1909,25.146484,815.73486,24.261475,-61.904907,31.425476,-93.19643,-265.25137,124.40247
1734660162.4139721,569.8242,9.155273,793.33496,25.382996,-58.532715,28.373718,-93.19643,-265.25137,124.40247
1734660162.4221072,573.54736,16.113281,789.917,26.71051,-55.473328,25.634766,-93.19643,-265.25137,124.40247
1734660162.4289894,582.70264,32.104492,793.0908,27.755737,-51.76544,23.719788,-93.19643,-265.25137,124.40247
1734660162.4306138,589.1113,48.217773,809.3872,28.59497,-47.218323,22.125244,-34.052544,-252.7057,112.30779
1734660162.4342873,594.84863,49.072266,819.51904,28.518677,-42.57965,20.858765,-34.052544,-252.7057,112.30779
1734660162.438422,608.1543,47.24121,822.7539,27.84729,-38.024902,20.02716,-34.052544,-252.7057,112.30779
1734660162.4465857,618.2251,48.339844,829.28467,26.641846,-33.27942,19.454956,-34.052544,-252.7057,112.30779
1734660162.4507089,618.34717,40.34424,829.0405,24.307251,-28.434753,18.882751,-34.052544,-252.7057,112.30779
1734660162.4547634,614.1968,38.757324,818.1763,21.522522,-23.162842,18.089294,-34.052544,-252.7057,112.30779
1734660162.4589257,612.24365,34.057617,806.3965,18.64624,-17.219543,17.089844,-34.052544,-252.7057,112.30779
1734660162.463151,613.95264,35.705566,800.78125,16.151428,-9.933472,15.548706,-34.052544,-252.7057,112.30779
1734660162.473587,609.5581,44.6167,808.7158,14.160156,-1.0681152,13.282776,-34.052544,-252.7057,112.30779
1734660162.4765422,609.375,55.786133,818.7866,11.962891,8.781433,10.383606,-34.052544,-252.7057,112.30779
1734660162.4794374,605.2246,61.462402,831.54297,9.841919,19.371033,7.217407,-34.052544,-252.7057,112.30779
1734660162.483507,605.46875,73.73047,826.47705,7.789612,30.9906,3.6315918,-34.052544,-252.7057,112.30779
1734660162.4897313,624.0845,70.06836,833.61816,6.187439,43.74695,-0.08392334,-34.052544,-252.7057,112.30779
1734660162.4981103,628.479,63.598633,854.06494,5.2948,57.495117,-3.692627,-34.052544,-252.7057,112.30779
1734660162.5001526,618.4082,69.885254,872.31445,4.508972,70.999146,-6.8893433,-34.052544,-252.7057,112.30779
1734660162.5048857,607.4829,72.021484,880.4321,3.5171509,83.488464,-9.651184,-34.052544,-252.7057,112.30779
1734660162.5121944,606.3843,77.20947,891.9678,3.1585693,95.93964,-11.772156,-34.052544,-252.7057,112.30779
1734660162.5163074,606.68945,87.70752,918.2129,3.8375854,108.84857,-13.397217,-34.052544,-252.7057,112.30779
1734660162.5203774,610.5957,93.811035,947.0825,4.5166016,122.07794,-14.930725,-34.052544,-252.7057,112.30779
1734660162.524409,602.417,88.1958,968.68896,5.027771,135.52856,-16.273499,-34.052544,-252.7057,112.30779
1734660162.5288222,587.5244,80.81055,966.06445,5.1193237,148.59009,-17.242432,-34.052544,-252.7057,112.30779
1734660162.536806,570.55664,71.899414,960.8154,4.463196,160.93445,-18.081665,-34.052544,-252.7057,112.30779
1734660162.5408983,574.21875,58.59375,947.4487,2.8305054,171.97418,-18.753052,-34.052544,-252.7057,112.30779
1734660162.544961,586.54785,44.555664,921.5698,0.21362305,181.92291,-19.02771,-34.052544,-252.7057,112.30779
1734660162.5490904,600.46387,37.17041,911.9263,-2.5863647,190.99426,-18.829346,-34.052544,-252.7057,112.30779
1734660162.5531292,600.58594,19.16504,901.5503,-5.508423,199.00513,-18.363953,-91.40419,-245.53674,112.30779
1734660162.5614166,579.77295,0.7324219,896.3013,-8.331299,205.61218,-18.104553,-91.40419,-245.53674,112.30779
1734660162.565383,546.6919,-23.132324,887.57324,-11.08551,210.3653,-18.302917,-91.40419,-245.53674,112.30779
1734660162.5694985,509.2163,-34.057617,867.4927,-13.183594,213.20343,-18.608093,-91.40419,-245.53674,112.30779
1734660162.5736074,470.52002,-24.963379,856.5674,-14.3585205,214.3097,-18.745422,-91.40419,-245.53674,112.30779
1734660162.5777874,390.625,34.057617,901.12305,-14.801025,214.59961,-19.15741,-91.40419,-245.53674,112.30779
1734660162.5858586,385.2539,78.79639,929.3823,-16.212463,214.44702,-20.78247,-91.40419,-245.53674,112.30779
1734660162.5900013,384.46045,103.94287,937.43896,-17.585754,213.05084,-21.499634,-91.40419,-245.53674,112.30779
1734660162.5941637,356.2622,106.87256,929.5654,-18.1427,211.21216,-20.385742,-91.40419,-245.53674,112.30779
1734660162.6022816,313.96484,105.651855,937.07275,-17.173767,209.3811,-18.26477,-91.40419,-245.53674,112.30779
1734660162.6063645,265.74707,107.299805,957.4585,-14.404297,207.83997,-15.922546,-91.40419,-245.53674,112.30779
1734660162.6104186,217.22412,108.52051,972.9004,-10.475159,207.05414,-13.313293,-91.40419,-245.53674,112.30779
1734660162.6146498,176.81885,111.572266,961.73096,-6.149292,208.17566,-11.306763,-91.40419,-245.53674,112.30779
1734660162.6228414,162.04834,108.45947,947.937,-2.1438599,212.19635,-10.467529,-91.40419,-245.53674,112.30779
1734660162.6268098,157.40967,102.84424,955.5054,0.9841919,219.18488,-11.947632,-91.40419,-245.53674,112.30779
1734660162.6308978,164.2456,65.30762,934.3262,2.7160645,229.09546,-16.098022,-91.40419,-245.53674,112.30779
1734660162.6391747,239.0747,-67.07764,920.105,5.9890747,249.99237,-26.83258,-91.40419,-245.53674,112.30779
1734660162.6431699,301.69678,-101.867676,908.56934,8.964539,249.99237,-30.11322,-91.40419,-245.53674,112.30779
1734660162.647306,341.00342,-107.788086,914.6118,13.252258,249.99237,-31.784058,-91.40419,-245.53674,112.30779
1734660162.651501,346.25244,-100.03662,932.18994,17.63916,249.99237,-32.829285,-91.40419,-245.53674,112.30779
1734660162.6595786,322.14355,-71.5332,938.3545,20.812988,249.99237,-32.50122,-91.40419,-245.53674,112.30779
1734660162.6637623,273.49854,-17.8833,904.05273,22.43042,248.66486,-30.8609,-91.40419,-245.53674,112.30779
1734660162.6678002,209.28955,18.676758,883.42285,23.719788,234.36737,-27.96936,-91.40419,-245.53674,112.30779
1734660162.6719468,140.625,55.908203,886.4746,24.780273,214.83612,-23.658752,-91.40419,-245.53674,112.30779
1734660162.6760483,78.24707,111.87744,911.74316,24.246216,189.5752,-18.234253,-270.6281,-274.2126,57.0178
1734660162.6841707,46.26465,153.19824,920.3491,21.598816,159.4162,-11.84082,-270.6281,-274.2126,57.0178
1734660162.6883934,30.456543,168.396,918.9453,17.951965,126.26648,-4.4784546,-270.6281,-274.2126,57.0178
1734660162.6923392,12.6953125,170.41016,907.40967,14.015198,92.46826,3.8833618,-270.6281,-274.2126,57.0178
1734660162.6965852,-21.30127,184.99756,883.1177,9.94873,59.883118,12.664795,-270.6281,-274.2126,57.0178
1734660162.7006347,-44.067383,200.43945,866.272,6.225586,30.273438,20.645142,-270.6281,-274.2126,57.0178
1734660162.7088535,-3.3569336,230.83496,878.479,3.1204224,5.088806,26.481628,-270.6281,-274.2126,57.0178
1734660162.7132862,-29.907227,161.86523,898.01025,-0.9384155,-13.565063,29.792786,-270.6281,-274.2126,57.0178
1734660162.7170165,-86.30371,108.52051,890.625,-2.494812,-22.79663,33.317566,-270.6281,-274.2126,57.0178
1734660162.7210777,-146.60645,109.13086,923.2178,-0.75531006,-25.527954,33.477783,-270.6281,-274.2126,57.0178
1734660162.7293005,-157.10449,82.03125,960.2661,-0.030517578,-25.360107,30.067444,-270.6281,-274.2126,57.0178
1734660162.7332668,-117.67578,60.48584,985.1074,0.35095215,-20.874023,25.665283,-270.6281,-274.2126,57.0178
1734660162.7374609,-87.768555,40.039063,967.4072,-0.38909912,-11.734009,20.874023,-270.6281,-274.2126,57.0178
1734660162.7456772,-31.37207,50.78125,946.167,-0.64086914,0.61798096,15.594482,-270.6281,-274.2126,57.0178
1734660162.749744,-3.6621094,25.390625,949.4629,-0.38909912,14.198303,9.44519,-270.6281,-274.2126,57.0178
1734660162.7538836,-5.6152344,-5.6762695,930.78613,1.0375977,28.72467,5.569458,-270.6281,-274.2126,57.0178
1734660162.7580206,-7.2631836,16.357422,925.4761,5.66864,43.33496,2.746582,-270.6281,-274.2126,57.0178
1734660162.7622504,21.911621,14.526367,953.36914,9.712219,54.351807,-1.2664795,-270.6281,-274.2126,57.0178
1734660162.770233,45.776367,-7.2021484,964.2334,12.718201,61.897278,-3.8833618,-270.6281,-274.2126,57.0178
1734660162.7744434,57.678223,8.7890625,941.95557,15.762329,67.89398,-4.295349,-270.6281,-274.2126,57.0178
1734660162.778395,38.879395,19.592285,945.4346,18.074036,71.380615,-4.272461,-270.6281,-274.2126,57.0178
1734660162.7826536,16.418457,36.987305,955.8716,19.737244,71.31195,-3.6621094,-270.6281,-274.2126,57.0178
1734660162.7882695,2.8076172,54.07715,945.1294,20.835876,68.32886,-2.5405884,-270.6281,-274.2126,57.0178
1734660162.7953835,-8.300781,66.345215,935.18066,21.751404,63.171387,-0.91552734,-270.6281,-274.2126,57.0178
1734660162.7988162,-18.920898,77.57568,926.9409,22.42279,56.33545,1.1444092,-270.6281,-274.2126,57.0178
1734660162.8052242,-34.851074,94.177246,929.3823,22.55249,48.13385,3.5476685,-302.8884,-277.79706,32.82843
1734660162.8072104,-50.476074,111.87744,933.95996,22.102356,39.489746,5.8670044,-302.8884,-277.79706,32.82843
1734660162.8154578,-67.0166,126.09863,941.58936,20.889282,31.166077,7.965088,-302.8884,-277.79706,32.82843
1734660162.8193946,-81.17676,137.5122,959.3506,18.89038,23.674011,9.666443,-302.8884,-277.79706,32.82843
1734660162.8234203,-96.92383,146.54541,989.68506,16.426086,17.677307,10.635376,-302.8884,-277.79706,32.82843
1734660162.829598,-104.98047,157.04346,1023.5596,13.450623,13.977051,10.978699,-302.8884,-277.79706,32.82843
1734660162.831843,-109.313965,165.64941,1059.3872,9.391785,12.016296,10.978699,-302.8884,-277.79706,32.82843
1734660162.8398676,-110.16846,161.01074,1069.9463,4.8828125,12.176514,10.810852,-302.8884,-277.79706,32.82843
1734660162.844084,-112.976074,150.5127,1071.9604,1.197815,15.258789,10.238647,-302.8884,-277.79706,32.82843
1734660162.8480253,-113.708496,131.53076,1067.3218,-0.9689331,21.240234,9.483337,-302.8884,-277.79706,32.82843
1734660162.856292,-100.21973,107.84912,1026.3062,-1.4572144,28.953552,8.865356,-302.8884,-277.79706,32.82843
1734660162.863514,1.8920898,144.59229,1007.9956,-0.1296997,37.216187,7.7667236,-302.8884,-277.79706,32.82843
1734660162.8643982,-23.55957,41.3208,972.3511,0.6790161,47.24884,6.996155,-302.8884,-277.79706,32.82843
1734660162.868525,-76.59912,34.118652,929.5654,7.331848,60.5011,10.978699,-302.8884,-277.79706,32.82843
1734660162.8735042,-128.78418,36.56006,932.18994,14.854431,72.66998,11.642456,-302.8884,-277.79706,32.82843
1734660162.8808734,-91.552734,18.981934,941.5283,20.523071,80.63507,9.719849,-302.8884,-277.79706,32.82843
1734660162.884899,19.89746,54.93164,941.5283,24.765015,87.898254,7.331848,-302.8884,-277.79706,32.82843
1734660162.888942,-30.334473,69.885254,893.9209,24.604797,95.4361,5.744934,-302.8884,-277.79706,32.82843
1734660162.8968346,-66.223145,97.351074,909.729,25.901794,102.6535,7.6904297,-302.8884,-277.79706,32.82843
1734660162.901284,-116.33301,139.52637,971.1914,26.145935,109.13086,8.575439,-302.8884,-277.79706,32.82843
1734660162.9013734,-126.15967,137.69531,1043.8232,22.399902,111.67145,7.286072,-302.8884,-277.79706,32.82843
1734660162.9093919,-125.73242,129.6997,1079.5898,16.62445,114.76135,5.4244995,-302.8884,-277.79706,32.82843
1734660162.9134827,-151.67236,119.140625,1092.4683,11.123657,121.33026,4.463196,-302.8884,-277.79706,32.82843
1734660162.917696,-202.02637,133.97217,1145.5688,7.3242188,130.31006,3.5934448,-302.8884,-277.79706,32.82843
1734660162.9287262,-255.92041,117.91992,1179.6875,2.5100708,138.38196,2.1591187,-302.8884,-277.79706,32.82843
1734660162.9299855,-260.9253,87.646484,1187.0728,-2.319336,144.79828,0.31280518,-317.2263,-252.7057,5.1834364
1734660162.9339645,-255.61523,54.504395,1170.227,-6.3171387,153.44238,-2.2583008,-317.2263,-252.7057,5.1834364
1734660162.9381409,-270.1416,39.123535,1154.3579,-7.255554,164.9704,-4.1503906,-317.2263,-252.7057,5.1834364
1734660162.9437835,-310.54688,44.311523,1101.0742,-6.3171387,179.59595,-6.0577393,-317.2263,-252.7057,5.1834364
1734660162.95049,-324.1577,52.91748,1015.5029,-3.5705566,194.25964,-8.750916,-317.2263,-252.7057,5.1834364
1734660162.9549415,-319.82422,60.97412,960.69336,0.39672852,207.96967,-11.21521,-317.2263,-252.7057,5.1834364
1734660162.9585967,-313.78174,64.02588,911.499,3.7155151,218.87207,-12.527466,-317.2263,-252.7057,5.1834364
1734660162.9634786,-307.86133,99.42627,885.376,7.095337,227.0813,-13.092041,-317.2263,-252.7057,5.1834364
1734660162.9669344,-294.67773,115.72266,880.0049,9.063721,231.86493,-13.473511,-317.2263,-252.7057,5.1834364
1734660162.974976,-278.50342,129.39453,890.2588,9.643555,233.29926,-13.717651,-317.2263,-252.7057,5.1834364
1734660162.979183,-266.90674,131.22559,899.7803,8.087158,233.26111,-14.038086,-317.2263,-252.7057,5.1834364
1734660162.9832773,-266.60156,115.600586,916.25977,4.9362183,232.70416,-13.870239,-317.2263,-252.7057,5.1834364
1734660162.9872994,-273.55957,83.740234,917.96875,0.90026855,233.47473,-12.313843,-317.2263,-252.7057,5.1834364
1734660162.9970481,-311.34033,93.322754,933.59375,-2.204895,236.557,-9.628296,-317.2263,-252.7057,5.1834364
1734660162.9995573,-389.16016,129.57764,954.4678,-4.3945313,240.66162,-7.1105957,-317.2263,-252.7057,5.1834364
1734660163.0036962,-452.88086,157.22656,967.65137,-7.8201294,243.78967,-5.92041,-317.2263,-252.7057,5.1834364
1734660163.0078003,-496.76514,184.44824,969.9707,-13.442993,245.14008,-5.92041,-317.2263,-252.7057,5.1834364
1734660163.0160444,-517.0288,198.48633,959.7168,-20.774841,244.33899,-6.011963,-317.2263,-252.7057,5.1834364
1734660163.0227196,-521.9116,208.4961,944.7632,-29.36554,241.53137,-5.9661865,-317.2263,-252.7057,5.1834364
1734660163.0242755,-526.67236,213.1958,907.8369,-39.123535,236.28998,-5.6381226,-317.2263,-252.7057,5.1834364
1734660163.0314245,-556.51855,205.93262,862.3657,-48.7442,228.97339,-5.241394,-317.2263,-252.7057,5.1834364
1734660163.0325522,-598.02246,195.37354,827.2095,-57.006836,219.7876,-5.340576,-317.2263,-252.7057,5.1834364
1734660163.0405116,-637.93945,158.3252,776.85547,-64.68201,209.92279,-6.2332153,-317.2263,-252.7057,5.1834364
1734660163.044574,-668.7012,121.58203,716.3086,-69.96155,200.36316,-7.484436,-317.2263,-252.7057,5.1834364
1734660163.04876,-688.0493,97.229004,679.5044,-71.899414,191.87927,-9.117126,-442.68304,-267.0436,-153.77528
1734660163.0530286,-710.87646,63.415527,638.7329,-70.259094,184.89075,-10.71167,-442.68304,-267.0436,-153.77528
1734660163.0610094,-730.4077,52.734375,628.90625,-66.04767,178.12347,-12.565613,-442.68304,-267.0436,-153.77528
1734660163.0652144,-728.5156,29.174805,650.75684,-62.10327,172.2641,-15.357971,-442.68304,-267.0436,-153.77528
1734660163.0711007,-709.4116,38.024902,677.7954,-59.020996,169.34204,-18.4021,-442.68304,-267.0436,-153.77528
1734660163.0734246,-667.5415,23.742676,681.15234,-56.922913,167.86194,-20.67566,-442.68304,-267.0436,-153.77528
1734660163.0774963,-639.2822,-6.958008,669.7388,-54.893494,166.61072,-21.148682,-442.68304,-267.0436,-153.77528
1734660163.0886943,-613.5864,-28.015137,659.2407,-52.53601,164.94751,-19.859314,-442.68304,-267.0436,-153.77528
1734660163.0897157,-602.7832,-50.842285,651.48926,-50.476074,162.08649,-18.432617,-442.68304,-267.0436,-153.77528
1734660163.093749,-637.4512,-17.028809,618.042,-47.88971,158.92792,-15.029907,-442.68304,-267.0436,-153.77528
1734660163.103502,-657.40967,-15.625,635.49805,-43.47229,154.48761,-11.375427,-442.68304,-267.0436,-153.77528
1734660163.1060505,-676.7578,-57.495117,645.813,-40.237427,147.94922,-8.728027,-442.68304,-267.0436,-153.77528
1734660163.1101487,-710.8154,-67.50488,624.2676,-37.52899,139.29749,-4.776001,-442.68304,-267.0436,-153.77528
1734660163.1145551,-739.7461,-41.68701,622.68066,-33.64563,130.72968,-0.64849854,-442.68304,-267.0436,-153.77528
1734660163.1208792,-783.3862,52.67334,629.45557,-29.808044,122.05505,1.3961792,-442.68304,-267.0436,-153.77528
1734660163.1225705,-943.6035,-76.9043,531.1279,-28.518677,103.256226,3.4255981,-442.68304,-267.0436,-153.77528
1734660163.1315265,-912.96387,-1.5258789,646.0571,-18.600464,71.91467,9.338379,-442.68304,-267.0436,-153.77528
1734660163.1346958,-874.38965,-5.493164,712.76855,-13.999939,56.793213,10.20813,-442.68304,-267.0436,-153.77528
1734660163.1389925,-796.0205,-6.8969727,708.06885,-14.129639,56.05316,5.5236816,-442.68304,-267.0436,-153.77528
1734660163.1433907,-821.3501,-13.85498,664.12354,-18.02063,61.49292,2.494812,-442.68304,-267.0436,-153.77528
1734660163.1511784,-840.20996,15.563965,642.2119,-22.155762,65.200806,1.1749268,-442.68304,-267.0436,-153.77528
1734660163.1570544,-825.0122,29.35791,606.6284,-27.420044,63.99536,-1.1138916,-442.68304,-267.0436,-153.77528
1734660163.159702,-778.8086,19.592285,551.2085,-32.447815,58.494568,-2.5482178,-442.68304,-267.0436,-153.77528
1734660163.165198,-750.24414,7.873535,512.57324,-34.996033,52.886963,-2.2583008,-442.68304,-267.0436,-153.77528
1734660163.1675997,-743.5913,-34.362793,448.05908,-35.8963,48.225403,-0.5645752,-442.68304,-267.0436,-153.77528
1734660163.175715,-750.7324,-60.668945,398.86475,-34.17206,44.281006,1.4572144,-478.52783,-284.966,-264.35526
1734660163.1798792,-771.0571,-75.8667,348.81592,-30.11322,41.107178,3.2577515,-478.52783,-284.966,-264.35526
1734660163.183995,-801.2085,-80.68848,347.96143,-23.918152,37.872314,3.7994385,-478.52783,-284.966,-264.35526
1734660163.189906,-808.3496,-81.11572,375.61035,-17.456055,33.470154,3.3187866,-478.52783,-284.966,-264.35526
1734660163.1962562,-802.49023,-79.65088,406.18896,-11.703491,29.518127,2.8533936,-478.52783,-284.966,-264.35526
1734660163.2005196,-789.85596,-75.74463,432.25098,-6.7825317,26.3443,3.0059814,-478.52783,-284.966,-264.35526
1734660163.2066138,-780.82275,-76.35498,437.56104,-2.5787354,23.57483,3.7384033,-478.52783,-284.966,-264.35526
1734660163.2086308,-778.9917,-73.73047,429.5044,1.5106201,20.53833,4.219055,-478.52783,-284.966,-264.35526
1734660163.21276,-783.6304,-70.92285,427.7954,5.4016113,15.083313,4.40979,-478.52783,-284.966,-264.35526
1734660163.2207224,-791.07666,-69.39697,425.1709,8.857727,7.698059,4.2800903,-478.52783,-284.966,-264.35526
1734660163.2247818,-800.7202,-52.79541,445.25146,11.703491,-0.6561279,4.119873,-478.52783,-284.966,-264.35526
1734660163.228986,-812.0117,-20.812988,486.57227,13.084412,-9.521484,3.868103,-478.52783,-284.966,-264.35526
1734660163.237101,-846.98486,17.333984,526.6113,11.978149,-18.2724,3.036499,-478.52783,-284.966,-264.35526
1734660163.241152,-895.75195,25.756836,499.20654,8.934021,-27.511597,1.1367798,-478.52783,-284.966,-264.35526
1734660163.2454143,-921.5088,16.235352,453.125,6.362915,-38.20038,-1.6860962,-478.52783,-284.966,-264.35526
1734660163.2495253,-911.56006,18.066406,449.2798,4.3563843,-50.186157,-4.470825,-478.52783,-284.966,-264.35526
1734660163.2547853,-889.4043,35.095215,470.21484,1.3809204,-61.843872,-6.729126,-478.52783,-284.966,-264.35526
1734660163.2617865,-866.5161,63.11035,501.5869,-3.4103394,-74.24164,-8.071899,-478.52783,-284.966,-264.35526
1734660163.266556,-868.5913,65.979004,499.51172,-9.666443,-89.98871,-8.117676,-478.52783,-284.966,-264.35526
1734660163.272046,-875.9155,60.546875,475.40283,-14.48822,-109.71832,-7.759094,-478.52783,-284.966,-264.35526
1734660163.2740865,-862.1216,31.677246,472.96143,-17.333984,-132.46918,-7.4386597,-478.52783,-284.966,-264.35526
1734660163.282178,-824.40186,-1.0986328,500.6714,-18.821716,-155.63202,-7.1029663,-478.52783,-284.966,-264.35526
1734660163.2878413,-767.8833,-30.639648,527.89307,-19.64569,-176.50604,-6.5612793,-478.52783,-284.966,-264.35526
1734660163.2904017,-722.5342,-75.62256,537.41455,-19.973755,-195.66345,-4.852295,-478.52783,-284.966,-264.35526
1734660163.2945433,-692.3828,-122.31445,544.37256,-19.081116,-213.13477,-1.914978,-478.52783,-284.966,-264.35526
1734660163.2987847,-685.9131,-158.02002,535.5835,-16.700745,-227.70691,1.5563965,-473.15112,-304.68063,-217.70433
1734660163.3068235,-652.2217,-165.16113,544.7388,-12.687683,-239.21204,4.760742,-473.15112,-304.68063,-217.70433
1734660163.310813,-669.0674,-170.95947,588.25684,-8.06427,-246.20819,6.996155,-473.15112,-304.68063,-217.70433
1734660163.3150518,-681.51855,-161.31592,612.24365,-4.211426,-250,8.056641,-473.15112,-304.68063,-217.70433
1734660163.323229,-699.2798,-166.07666,564.81934,-0.16021729,-250,6.904602,-473.15112,-304.68063,-217.70433
1734660163.327361,-688.11035,-169.98291,512.0239,6.942749,-247.3526,4.501343,-473.15112,-304.68063,-217.70433
1734660163.3314328,-667.9077,-178.83301,505.67627,16.25061,-241.53137,2.1133423,-473.15112,-304.68063,-217.70433
1734660163.340032,-633.97217,-154.11377,581.17676,26.59607,-235.62622,-0.18310547,-473.15112,-304.68063,-217.70433
1734660163.3402076,-579.28467,-134.94873,633.3618,34.065247,-230.61371,-1.7623901,-473.15112,-304.68063,-217.70433
1734660163.3437738,-520.56885,-119.62891,669.55566,39.764404,-225.81482,-1.8157959,-473.15112,-304.68063,-217.70433
1734660163.3517575,-504.39453,-93.38379,694.5801,44.487,-220.98541,-0.39672852,-473.15112,-304.68063,-217.70433
1734660163.3558607,-514.64844,-66.833496,706.4209,47.88208,-217.40723,1.2054443,-473.15112,-304.68063,-217.70433
1734660163.3599927,-524.1699,-47.60742,700.7446,51.216125,-216.0492,2.1514893,-473.15112,-304.68063,-217.70433
1734660163.3642626,-523.0713,-38.81836,689.209,54.91638,-217.77344,2.5558472,-473.15112,-304.68063,-217.70433
1734660163.3723278,-512.5122,-30.578613,697.0825,58.563232,-222.03064,2.4337769,-473.15112,-304.68063,-217.70433
1734660163.3763916,-451.0498,-48.461914,743.65234,60.87494,-227.47803,2.4490356,-473.15112,-304.68063,-217.70433
1734660163.3806214,-423.64502,-42.72461,714.84375,61.10382,-233.63495,4.173279,-473.15112,-304.68063,-217.70433
1734660163.3846383,-372.31445,-24.536133,726.0742,61.7218,-240.71503,6.2026978,-473.15112,-304.68063,-217.70433
1734660163.3887196,-302.7954,-27.526855,734.13086,61.187744,-247.95532,7.659912,-473.15112,-304.68063,-217.70433
1734660163.3968914,-233.64258,-17.51709,746.3379,60.279846,-250,8.903503,-473.15112,-304.68063,-217.70433
1734660163.4065137,-173.33984,-5.92041,811.34033,58.181763,-250,9.880066,-473.15112,-304.68063,-217.70433
1734660163.40676,-140.38086,17.089844,911.6211,53.489685,-250,11.08551,-473.15112,-304.68063,-217.70433
1734660163.4092996,-156.25,70.67871,1005.61523,45.326233,-250,13.122559,-473.15112,-304.68063,-217.70433
1734660163.4132652,-178.03955,108.70361,1092.2241,34.324646,-250,14.411926,-473.15112,-304.68063,-217.70433
1734660163.4226902,-171.26465,102.23389,1129.6997,21.621704,-250,14.945984,-473.15112,-304.68063,-217.70433
1734660163.4255273,-154.35791,90.026855,1161.3159,9.414673,-250,15.411377,-354.8633,-311.84958,-13.822497
1734660163.4296172,-139.83154,59.2041,1155.7007,-2.4337769,-250,16.220093,-354.8633,-311.84958,-13.822497
1734660163.4337137,-93.566895,-0.18310547,1146.4233,-12.72583,-250,17.120361,-354.8633,-311.84958,-13.822497
1734660163.4420347,-40.283203,-80.322266,1113.5254,-20.614624,-250,18.4021,-354.8633,-311.84958,-13.822497
1734660163.446076,2.380371,-156.67725,1095.2759,-23.330688,-250,21.614075,-354.8633,-311.84958,-13.822497
1734660163.4502444,2.2583008,-181.21338,1095.459,-19.348145,-250,26.2146,-354.8633,-311.84958,-13.822497
1734660163.4584227,-8.850098,-188.23242,1102.8442,-10.566711,-236.41968,30.128479,-354.8633,-311.84958,-13.822497
1734660163.4586568,-28.076172,-179.38232,1095.3369,1.1444092,-217.76581,31.967163,-354.8633,-311.84958,-13.822497
1734660163.4665065,-35.03418,-208.92334,1108.0933,13.969421,-197.85309,33.3786,-354.8633,-311.84958,-13.822497
1734660163.4734159,-32.77588,-183.89893,1115.7227,27.183533,-177.10876,34.324646,-354.8633,-311.84958,-13.822497
1734660163.4748554,-39.001465,-137.5122,1107.2998,37.93335,-157.61566,33.973694,-354.8633,-311.84958,-13.822497
1734660163.479157,-39.0625,-88.80615,1088.0127,46.684265,-140.81573,32.196045,-354.8633,-311.84958,-13.822497
1734660163.4898283,-56.09131,-51.452637,1080.2612,53.398132,-126.5564,29.891968,-354.8633,-311.84958,-13.822497
1734660163.4911177,-67.0166,-8.483887,1077.7588,57.495117,-115.47089,26.931763,-354.8633,-311.84958,-13.822497
1734660163.495169,-59.631348,19.28711,1052.5513,58.555603,-107.810974,24.024963,-354.8633,-311.84958,-13.822497
1734660163.4992588,-25.756836,44.98291,1035.8276,57.044983,-103.60718,22.354126,-354.8633,-311.84958,-13.822497
1734660163.5074427,4.0893555,60.11963,1041.4429,52.970886,-101.77612,22.05658,-354.8633,-311.84958,-13.822497
1734660163.511477,-42.60254,168.7622,1028.2593,46.463013,-100.746155,22.872925,-354.8633,-311.84958,-13.822497
1734660163.5157175,-60.85205,244.87305,1053.9551,36.79657,-99.15161,26.19934,-354.8633,-311.84958,-13.822497
1734660163.5238357,122.37549,-164.91699,1092.102,10.482788,-106.292725,21.232605,-354.8633,-311.84958,-13.822497
1734660163.5279133,120.11719,-91.918945,1063.8428,9.07135,-102.9892,20.561218,-354.8633,-311.84958,-13.822497
1734660163.5320733,84.59473,-47.546387,1035.6445,7.30896,-94.80286,20.774841,-354.8633,-311.84958,-13.822497
1734660163.536189,72.509766,39.123535,1148.8037,7.713318,-84.732056,18.592834,-354.8633,-311.84958,-13.822497
1734660163.544291,72.99805,6.164551,1124.6948,4.2419434,-74.85962,16.89148,-354.8633,-311.84958,-13.822497
1734660163.5483608,86.364746,-12.512207,1102.5391,3.0136108,-64.704895,16.342163,-267.0436,-295.71945,63.92905
1734660163.5525465,100.83008,-10.7421875,1083.8013,4.310608,-54.07715,17.089844,-267.0436,-295.71945,63.92905
1734660163.556596,106.62842,0.4272461,1080.4443,7.347107,-43.99872,18.424988,-267.0436,-295.71945,63.92905
1734660163.5647404,105.10254,25.939941,1083.6182,11.116028,-34.942627,19.752502,-267.0436,-295.71945,63.92905
1734660163.5688725,89.17236,39.30664,1075.6226,13.664246,-27.168274,20.767212,-267.0436,-295.71945,63.92905
1734660163.5730212,64.94141,50.842285,1081.8481,15.037537,-20.896912,21.102905,-267.0436,-295.71945,63.92905
1734660163.5771308,51.330566,46.691895,1070.0684,14.831543,-15.571594,20.721436,-267.0436,-295.71945,63.92905
1734660163.5853524,58.898926,45.34912,1055.542,14.205933,-11.245728,19.760132,-267.0436,-295.71945,63.92905
1734660163.5892768,71.47217,39.733887,1041.626,12.832642,-7.865906,18.814087,-267.0436,-295.71945,63.92905
1734660163.5934021,80.56641,31.49414,1023.5596,11.413574,-4.508972,17.829895,-267.0436,-295.71945,63.92905
1734660163.5975873,81.23779,22.949219,1017.2119,11.024475,-0.7019043,16.731262,-267.0436,-295.71945,63.92905
1734660163.6018078,88.62305,22.644043,1012.26807,11.2838745,3.4332275,15.419006,-267.0436,-295.71945,63.92905
1734660163.609777,87.95166,31.37207,999.3286,11.909485,7.911682,14.060974,-267.0436,-295.71945,63.92905
1734660163.6139107,83.43506,46.936035,998.53516,12.489319,12.35199,12.466431,-267.0436,-295.71945,63.92905
1734660163.618026,78.61328,58.898926,990.6616,11.695862,15.632629,10.787964,-267.0436,-295.71945,63.92905
1734660163.6221519,63.537598,67.87109,988.64746,9.727478,17.929077,9.536743,-267.0436,-295.71945,63.92905
1734660163.6303258,51.818848,61.828613,985.7788,7.156372,19.676208,8.44574,-267.0436,-295.71945,63.92905
1734660163.6344125,49.926758,45.532227,979.43115,4.8675537,20.6604,7.331848,-267.0436,-295.71945,63.92905
1734660163.6386454,52.30713,38.208008,971.98486,3.3187866,20.78247,6.6452026,-267.0436,-295.71945,63.92905
1734660163.646731,66.589355,24.963379,972.5952,2.4032593,20.210266,6.2332153,-267.0436,-295.71945,63.92905
1734660163.6507788,76.78223,9.82666,973.938,2.204895,19.073486,6.6223145,-267.0436,-295.71945,63.92905
1734660163.6548934,81.48193,3.540039,980.1636,2.937317,17.562866,7.9345703,-267.0436,-295.71945,63.92905
1734660163.6590135,75.98877,8.911133,992.24854,4.4174194,15.50293,9.57489,-267.0436,-295.71945,63.92905
1734660163.6631923,68.90869,11.474609,1000.1831,6.3095093,13.664246,10.818481,-267.0436,-295.71945,63.92905
1734660163.6713917,65.73486,9.155273,997.9248,8.506775,12.260437,11.672974,-267.0436,-295.71945,63.92905
1734660163.67532,62.25586,8.605957,996.2158,10.597229,11.230469,12.336731,-254.49794,-276.00482,58.745613
1734660163.6795123,58.776855,13.183594,994.751,12.72583,10.398865,12.664795,-254.49794,-276.00482,58.745613
1734660163.6836798,72.265625,18.859863,988.5254,14.427185,9.307861,12.939453,-254.49794,-276.00482,58.745613
1734660163.6877358,94.055176,25.57373,992.0654,15.663147,7.9574585,13.595581,-254.49794,-276.00482,58.745613
1734660163.6962144,101.257324,36.254883,999.20654,16.25061,6.4315796,14.640808,-254.49794,-276.00482,58.745613
1734660163.6999643,88.74512,40.283203,1003.41797,16.075134,4.737854,15.708923,-254.49794,-276.00482,58.745613
1734660163.7042003,72.387695,43.762207,992.1875,15.350342,3.2958984,16.410828,-254.49794,-276.00482,58.745613
1734660163.7082813,55.480957,46.691895,987.1216,14.74762,2.2964478,16.746521,-254.49794,-276.00482,58.745613
1734660163.7123387,55.480957,46.447754,988.8916,14.434814,1.8386841,16.51001,-254.49794,-276.00482,58.745613
1734660163.720381,56.57959,51.02539,986.57227,14.312744,1.9378662,16.212463,-254.49794,-276.00482,58.745613
1734660163.7244782,54.016113,50.354004,985.2295,14.457703,2.532959,15.678406,-254.49794,-276.00482,58.745613
1734660163.7286434,53.28369,49.438477,990.4785,14.701843,3.440857,15.12146,-254.49794,-276.00482,58.745613
1734660163.7327347,55.541992,43.518066,994.01855,14.671326,4.3029785,14.541626,-254.49794,-276.00482,58.745613
1734660163.7409487,58.95996,41.748047,988.7085,14.213562,4.7073364,14.183044,-254.49794,-276.00482,58.745613
1734660163.7450514,60.85205,40.34424,978.21045,13.442993,4.7454834,14.122009,-254.49794,-276.00482,58.745613
1734660163.749113,62.805176,41.809082,970.459,12.756348,4.295349,14.23645,-254.49794,-276.00482,58.745613
1734660163.7533655,56.70166,46.99707,972.229,12.306213,3.5858154,14.274597,-254.49794,-276.00482,58.745613
1734660163.7573316,52.18506,52.368164,973.5718,11.84082,3.074646,14.343262,-254.49794,-276.00482,58.745613
1734660163.7654364,44.433594,49.25537,973.51074,11.390686,2.8686523,14.1067505,-254.49794,-276.00482,58.745613
1734660163.7725244,43.884277,54.748535,975.3418,11.001587,2.7389526,13.801575,-254.49794,-276.00482,58.745613
1734660163.7737494,48.217773,56.762695,978.8208,10.246277,2.5177002,13.687134,-254.49794,-276.00482,58.745613
1734660163.777777,53.833008,64.88037,982.4219,9.399414,1.9683838,13.74054,-254.49794,-276.00482,58.745613
1734660163.786304,61.21826,67.87109,985.9619,8.201599,1.2283325,13.938904,-254.49794,-276.00482,58.745613
1734660163.7901888,61.157227,71.28906,990.72266,6.744385,0.541687,14.099121,-254.49794,-276.00482,58.745613
1734660163.7941754,61.76758,66.52832,987.06055,4.8294067,0.2593994,14.213562,-254.49794,-276.00482,58.745613
1734660163.7982843,61.950684,57.739258,988.09814,3.1967163,0.2746582,14.312744,-252.7057,-281.38153,53.562176
1734660163.8055696,61.340332,52.55127,985.5957,1.7089844,0.48065186,14.36615,-252.7057,-281.38153,53.562176
1734660163.8104725,63.537598,40.649414,977.72217,0.6790161,0.9994507,14.404297,-252.7057,-281.38153,53.562176
1734660163.8145964,59.936523,36.43799,973.69385,0.32043457,1.9454956,14.556885,-252.7057,-281.38153,53.562176
1734660163.8219068,55.29785,40.771484,976.5625,0.6790161,2.9830933,14.602661,-252.7057,-281.38153,53.562176
1734660163.8233116,52.79541,50.1709,977.9663,1.2207031,4.0512085,14.282227,-252.7057,-281.38153,53.562176
1734660163.8310716,46.569824,54.80957,977.478,1.7623901,5.3634644,13.679504,-252.7057,-281.38153,53.562176
1734660163.8394825,46.203613,52.246094,975.95215,2.3345947,6.5231323,12.9470825,-252.7057,-281.38153,53.562176
